ExperimentName	Subject	Session	Clock.Information	DataFile.Basename	Display.RefreshRate	ExperimentVersion	Goodbye.DEVICE	Group	PleaseChoose.DEVICE	RandomSeed	RuntimeCapabilities	RuntimeVersion	RuntimeVersionExpected	SessionDate	SessionStartDateTimeUtc	SessionTime	StudioVersion	Welcome.DEVICE	Block	BlockList	BlockList.Cycle	BlockList.Sample	InstructionsExpe.DEVICE	Procedure[Block]	Running[Block]	Trial	Bis.ACC	Bis.CRESP	Bis.DEVICE	Bis.DurationError	Bis.OnsetDelay	Bis.OnsetTime	Bis.OnsetToOnsetTime	Bis.RESP	Bis.RT	Bis.RTTime	Break.DEVICE	Break.FirstFrameTime	Break.FrameRate	Break.FramesDisplayed	Break.FramesDropped	CorrectAnswer	Determiner	Fixation.DEVICE	Fixation.DurationError	Fixation.OnsetDelay	Fixation.OnsetTime	Fixation.OnsetToOnsetTime	Fixation.RESP	Fixation.RT	Fixation.RTTime	Image	Image_red	Item_type	Procedure[Trial]	QSound	Running[Trial]	Sound	Stimulus.DEVICE	TrainingList	TrainingList.Cycle	TrainingList.Sample	TrialList1	TrialList1.Cycle	TrialList1.Sample	TrialList2	TrialList2.Cycle	TrialList2.Sample
Generico_V2	2	1	<?xml version="1.0"?>\n<Clock xmlns:dt="urn:schemas-microsoft-com:datatypes"><Description dt:dt="string">E-Prime Primary Realtime Clock</Description><StartTime><Timestamp dt:dt="int">0</Timestamp><DateUtc dt:dt="string">2019-10-23T09:19:17Z</DateUtc></StartTime><FrequencyChanges><FrequencyChange><Frequency dt:dt="r8">2835936</Frequency><Timestamp dt:dt="r8">1566065164</Timestamp><Current dt:dt="r8">0</Current><DateUtc dt:dt="string">2019-10-23T09:19:17Z</DateUtc></FrequencyChange></FrequencyChanges></Clock>\n	Generico_V2-2-1	59.996	1.0.0.341	Mouse	1	Keyboard	1566578771	Full	3.0.3.80	3.0.3.80	10-23-2019	23/10/2019 9:19:17	11:19:17	3.0..3.82	Mouse	1	1	1	1	Mouse	BlockProc	BlockList	1	1	1,2	Mouse	-999999	28	1263264	0	1	5304	1268568		0	0	0	0	1,2	?	Mouse	-999999	44	1245964	0	1	7084	1253048	burro	burro_400	Practice	TrialProc	prac.burro.marron	TrainingList	burro	Mouse	1	1	1						
Generico_V2	2	1	<?xml version="1.0"?>\n<Clock xmlns:dt="urn:schemas-microsoft-com:datatypes"><Description dt:dt="string">E-Prime Primary Realtime Clock</Description><StartTime><Timestamp dt:dt="int">0</Timestamp><DateUtc dt:dt="string">2019-10-23T09:19:17Z</DateUtc></StartTime><FrequencyChanges><FrequencyChange><Frequency dt:dt="r8">2835936</Frequency><Timestamp dt:dt="r8">1566065164</Timestamp><Current dt:dt="r8">0</Current><DateUtc dt:dt="string">2019-10-23T09:19:17Z</DateUtc></FrequencyChange></FrequencyChanges></Clock>\n	Generico_V2-2-1	59.996	1.0.0.341	Mouse	1	Keyboard	1566578771	Full	3.0.3.80	3.0.3.80	10-23-2019	23/10/2019 9:19:17	11:19:17	3..0.3.82	Mouse	1	1	1	1	Mouse	BlockProc	BlockList	2	1	2	Mouse	-999999	19	1281948	0	2	3332	1285280		0	0	0	0	2	?	Mouse	-999999	30	1268598	0	1	3106	1271704	camión	camión_400	Practice	TrialProc	prac.camion.bomberos	TrainingList	camion	Mouse	2	1	2						
Generico_V2	2	1	<?xml version="1.0"?>\n<Clock xmlns:dt="urn:schemas-microsoft-com:datatypes"><Description dt:dt="string">E-Prime Primary Realtime Clock</Description><StartTime><Timestamp dt:dt="int">0</Timestamp><DateUtc dt:dt="string">2019-10-23T09:19:17Z</DateUtc></StartTime><FrequencyChanges><FrequencyChange><Frequency dt:dt="r8">2835936</Frequency><Timestamp dt:dt="r8">1566065164</Timestamp><Current dt:dt="r8">0</Current><DateUtc dt:dt="string">2019-10-23T09:19:17Z</DateUtc></FrequencyChange></FrequencyChanges></Clock>\n	Generico_V2-2-1	59.996	1.0.0.341	Mouse	1	Keyboard	1566578771	Full	3.0.3.80	3.0.3.80	10-23-2019	23/10/2019 9:19:17	11:19:17	3..0.3.82	Mouse	1	1	1	1	Mouse	BlockProc	BlockList	3	1	1	Mouse	-999999	16	1296782	0	1	2474	1299256		0	0	0	0	1	?	Mouse	-999999	35	1285315	0	2	2317	1287632	pato.blanco	pato.blanco_400	Practice	TrialProc	prac.pato.blanco	TrainingList	pato	Mouse	3	1	3						
Generico_V2	2	1	<?xml version="1.0"?>\n<Clock xmlns:dt="urn:schemas-microsoft-com:datatypes"><Description dt:dt="string">E-Prime Primary Realtime Clock</Description><StartTime><Timestamp dt:dt="int">0</Timestamp><DateUtc dt:dt="string">2019-10-23T09:19:17Z</DateUtc></StartTime><FrequencyChanges><FrequencyChange><Frequency dt:dt="r8">2835936</Frequency><Timestamp dt:dt="r8">1566065164</Timestamp><Current dt:dt="r8">0</Current><DateUtc dt:dt="string">2019-10-23T09:19:17Z</DateUtc></FrequencyChange></FrequencyChanges></Clock>\n	Generico_V2-2-1	59.996	1.0.0.341	Mouse	1	Keyboard	1566578771	Full	3.0.3.80	3.0.3.80	10-23-2019	23/10/2019 9:19:17	11:19:17	3..0.3.82	Mouse	1	1	1	1	Mouse	BlockProc	BlockList	4	1	1,2	Mouse	-999999	23	1311015	0	2	3025	1314040		0	0	0	0	1,2	?	Mouse	-999999	42	1299298	0	1	2606	1301904	cuchara	cuchara_400	Practice	TrialProc	prac.cuchara.madera	TrainingList	cuchara	Mouse	4	1	4						
Generico_V2	2	1	<?xml version="1.0"?>\n<Clock xmlns:dt="urn:schemas-microsoft-com:datatypes"><Description dt:dt="string">E-Prime Primary Realtime Clock</Description><StartTime><Timestamp dt:dt="int">0</Timestamp><DateUtc dt:dt="string">2019-10-23T09:19:17Z</DateUtc></StartTime><FrequencyChanges><FrequencyChange><Frequency dt:dt="r8">2835936</Frequency><Timestamp dt:dt="r8">1566065164</Timestamp><Current dt:dt="r8">0</Current><DateUtc dt:dt="string">2019-10-23T09:19:17Z</DateUtc></FrequencyChange></FrequencyChanges></Clock>\n	Generico_V2-2-1	59.996	1.0.0.341	Mouse	1	Keyboard	1566578771	Full	3.0.3.80	3.0.3.80	10-23-2019	23/10/2019 9:19:17	11:19:17	3..0.3.82	Mouse	1	1	1	1	Mouse	BlockProc	BlockList	5	1	2	Mouse	-999999	17	1337616	0	2	2928	1340544		0	0	0	0	2	prop.name	Mouse	-999999	31	1325399	0	1	2393	1327792	16.reyes.magos	16.reyes.magos_400	filler	TrialProc	fill.Reyes	TrialList1	reyes_magos	Mouse				48	1	1			
Generico_V2	2	1	<?xml version="1.0"?>\n<Clock xmlns:dt="urn:schemas-microsoft-com:datatypes"><Description dt:dt="string">E-Prime Primary Realtime Clock</Description><StartTime><Timestamp dt:dt="int">0</Timestamp><DateUtc dt:dt="string">2019-10-23T09:19:17Z</DateUtc></StartTime><FrequencyChanges><FrequencyChange><Frequency dt:dt="r8">2835936</Frequency><Timestamp dt:dt="r8">1566065164</Timestamp><Current dt:dt="r8">0</Current><DateUtc dt:dt="string">2019-10-23T09:19:17Z</DateUtc></FrequencyChange></FrequencyChanges></Clock>\n	Generico_V2-2-1	59.996	1.0.0.341	Mouse	1	Keyboard	1566578771	Full	3.0.3.80	3.0.3.80	10-23-2019	23/10/2019 9:19:17	11:19:17	3..0.3.82	Mouse	1	1	1	1	Mouse	BlockProc	BlockList	6	1	2	Mouse	-999999	24	1355867	0	2	3061	1358928		0	0	0	0	2	generic	Mouse	-999999	39	1340583	0	2	3153	1343736	14.coche.2.puertas	14.coche.2.puertas_400	filler	TrialProc	fill.coches.puertas	TrialList1	coche	Mouse				30	1	2			
Generico_V2	2	1	<?xml version="1.0"?>\n<Clock xmlns:dt="urn:schemas-microsoft-com:datatypes"><Description dt:dt="string">E-Prime Primary Realtime Clock</Description><StartTime><Timestamp dt:dt="int">0</Timestamp><DateUtc dt:dt="string">2019-10-23T09:19:17Z</DateUtc></StartTime><FrequencyChanges><FrequencyChange><Frequency dt:dt="r8">2835936</Frequency><Timestamp dt:dt="r8">1566065164</Timestamp><Current dt:dt="r8">0</Current><DateUtc dt:dt="string">2019-10-23T09:19:17Z</DateUtc></FrequencyChange></FrequencyChanges></Clock>\n	Generico_V2-2-1	59.996	1.0.0.341	Mouse	1	Keyboard	1566578771	Full	3.0.3.80	3.0.3.80	10-23-2019	23/10/2019 9:19:17	11:19:17	3..0.3.82	Mouse	1	1	1	1	Mouse	BlockProc	BlockList	7	1	1	Mouse	-999999	15	1374767	0	1	2433	1377200		0	0	0	0	1	generic	Mouse	-999999	39	1358967	0	2	5985	1364952	6.man.no.teeth	6.man.no.teeth_400	critical	TrialProc	gen.personas.dientes	TrialList1	persona_dientes	Mouse				6	1	3			
Generico_V2	2	1	<?xml version="1.0"?>\n<Clock xmlns:dt="urn:schemas-microsoft-com:datatypes"><Description dt:dt="string">E-Prime Primary Realtime Clock</Description><StartTime><Timestamp dt:dt="int">0</Timestamp><DateUtc dt:dt="string">2019-10-23T09:19:17Z</DateUtc></StartTime><FrequencyChanges><FrequencyChange><Frequency dt:dt="r8">2835936</Frequency><Timestamp dt:dt="r8">1566065164</Timestamp><Current dt:dt="r8">0</Current><DateUtc dt:dt="string">2019-10-23T09:19:17Z</DateUtc></FrequencyChange></FrequencyChanges></Clock>\n	Generico_V2-2-1	59.996	1.0.0.341	Mouse	1	Keyboard	1566578771	Full	3.0.3.80	3.0.3.80	10-23-2019	23/10/2019 9:19:17	11:19:17	3..0.3.82	Mouse	1	1	1	1	Mouse	BlockProc	BlockList	8	1	1	Mouse	-999999	25	1388668	0	1	2388	1391056		0	0	0	0	1	prop.name	Mouse	-999999	34	1377234	0	1	3542	1380776	3.Celedon	3.Celedon_400	filler	TrialProc	fill.Celedon	TrialList1	celedon	Mouse				35	1	4			
Generico_V2	2	1	<?xml version="1.0"?>\n<Clock xmlns:dt="urn:schemas-microsoft-com:datatypes"><Description dt:dt="string">E-Prime Primary Realtime Clock</Description><StartTime><Timestamp dt:dt="int">0</Timestamp><DateUtc dt:dt="string">2019-10-23T09:19:17Z</DateUtc></StartTime><FrequencyChanges><FrequencyChange><Frequency dt:dt="r8">2835936</Frequency><Timestamp dt:dt="r8">1566065164</Timestamp><Current dt:dt="r8">0</Current><DateUtc dt:dt="string">2019-10-23T09:19:17Z</DateUtc></FrequencyChange></FrequencyChanges></Clock>\n	Generico_V2-2-1	59.996	1.0.0.341	Mouse	1	Keyboard	1566578771	Full	3.0.3.80	3.0.3.80	10-23-2019	23/10/2019 9:19:17	11:19:17	3..0.3.82	Mouse	1	1	1	1	Mouse	BlockProc	BlockList	9	1	2	Mouse	-999999	19	1404218	0	2	3078	1407296		0	0	0	0	2	generic	Mouse	-999999	28	1391084	0	1	3588	1394672	8.short.pants	8.short.pants_400	filler	TrialProc	fill.pantalones.cortos	TrialList1	pantalon	Mouse				24	1	5			
Generico_V2	2	1	<?xml version="1.0"?>\n<Clock xmlns:dt="urn:schemas-microsoft-com:datatypes"><Description dt:dt="string">E-Prime Primary Realtime Clock</Description><StartTime><Timestamp dt:dt="int">0</Timestamp><DateUtc dt:dt="string">2019-10-23T09:19:17Z</DateUtc></StartTime><FrequencyChanges><FrequencyChange><Frequency dt:dt="r8">2835936</Frequency><Timestamp dt:dt="r8">1566065164</Timestamp><Current dt:dt="r8">0</Current><DateUtc dt:dt="string">2019-10-23T09:19:17Z</DateUtc></FrequencyChange></FrequencyChanges></Clock>\n	Generico_V2-2-1	59.996	1.0.0.341	Mouse	1	Keyboard	1566578771	Full	3.0.3.80	3.0.3.80	10-23-2019	23/10/2019 9:19:17	11:19:17	3..0.3.82	Mouse	1	1	1	1	Mouse	BlockProc	BlockList	10	1	2	Mouse	-999999	26	1420385	0	2	4415	1424800		0	0	0	0	2	universal	Mouse	-999999	39	1407335	0	1	3113	1410448	9.one-ear-rabbit	9.one-ear-rabbit_400	critical	TrialProc	uni.conejos.orejas	TrialList1	conejo	Mouse				9	1	6			
Generico_V2	2	1	<?xml version="1.0"?>\n<Clock xmlns:dt="urn:schemas-microsoft-com:datatypes"><Description dt:dt="string">E-Prime Primary Realtime Clock</Description><StartTime><Timestamp dt:dt="int">0</Timestamp><DateUtc dt:dt="string">2019-10-23T09:19:17Z</DateUtc></StartTime><FrequencyChanges><FrequencyChange><Frequency dt:dt="r8">2835936</Frequency><Timestamp dt:dt="r8">1566065164</Timestamp><Current dt:dt="r8">0</Current><DateUtc dt:dt="string">2019-10-23T09:19:17Z</DateUtc></FrequencyChange></FrequencyChanges></Clock>\n	Generico_V2-2-1	59.996	1.0.0.341	Mouse	1	Keyboard	1566578771	Full	3.0.3.80	3.0.3.80	10-23-2019	23/10/2019 9:19:17	11:19:17	3..0.3.82	Mouse	1	1	1	1	Mouse	BlockProc	BlockList	11	1	2	Mouse	-999999	26	1436202	0	2	3318	1439520		0	0	0	0	2	prop.name	Mouse	-999999	35	1424835	0	2	2333	1427168	14.Mickey	14.Mickey_400	filler	TrialProc	fill.Mickey	TrialList1	mickey	Mouse				46	1	7			
Generico_V2	2	1	<?xml version="1.0"?>\n<Clock xmlns:dt="urn:schemas-microsoft-com:datatypes"><Description dt:dt="string">E-Prime Primary Realtime Clock</Description><StartTime><Timestamp dt:dt="int">0</Timestamp><DateUtc dt:dt="string">2019-10-23T09:19:17Z</DateUtc></StartTime><FrequencyChanges><FrequencyChange><Frequency dt:dt="r8">2835936</Frequency><Timestamp dt:dt="r8">1566065164</Timestamp><Current dt:dt="r8">0</Current><DateUtc dt:dt="string">2019-10-23T09:19:17Z</DateUtc></FrequencyChange></FrequencyChanges></Clock>\n	Generico_V2-2-1	59.996	1.0.0.341	Mouse	1	Keyboard	1566578771	Full	3.0.3.80	3.0.3.80	10-23-2019	23/10/2019 9:19:17	11:19:17	3..0.3.82	Mouse	1	1	1	1	Mouse	BlockProc	BlockList	12	1	2	Mouse	-999999	27	1449686	0	2	2626	1452312		0	0	0	0	2	prop.name	Mouse	-999999	32	1439552	0	1	1832	1441384	13.Trump	13.Trump_400	filler	TrialProc	fill.Trump	TrialList1	trump	Mouse				45	1	8			
Generico_V2	2	1	<?xml version="1.0"?>\n<Clock xmlns:dt="urn:schemas-microsoft-com:datatypes"><Description dt:dt="string">E-Prime Primary Realtime Clock</Description><StartTime><Timestamp dt:dt="int">0</Timestamp><DateUtc dt:dt="string">2019-10-23T09:19:17Z</DateUtc></StartTime><FrequencyChanges><FrequencyChange><Frequency dt:dt="r8">2835936</Frequency><Timestamp dt:dt="r8">1566065164</Timestamp><Current dt:dt="r8">0</Current><DateUtc dt:dt="string">2019-10-23T09:19:17Z</DateUtc></FrequencyChange></FrequencyChanges></Clock>\n	Generico_V2-2-1	59.996	1.0.0.341	Mouse	1	Keyboard	1566578771	Full	3.0.3.80	3.0.3.80	10-23-2019	23/10/2019 9:19:17	11:19:17	3..0.3.82	Mouse	1	1	1	1	Mouse	BlockProc	BlockList	13	0	2	Mouse	-999999	18	1464220	0	1	4788	1469008		0	0	0	0	2	generic	Mouse	-999999	41	1452353	0	2	1983	1454336	5.mariposa.azul	5.mariposa.azul_400	filler	TrialProc	fill.mariposas..azules	TrialList1	mariposa	Mouse				21	1	9			
Generico_V2	2	1	<?xml version="1.0"?>\n<Clock xmlns:dt="urn:schemas-microsoft-com:datatypes"><Description dt:dt="string">E-Prime Primary Realtime Clock</Description><StartTime><Timestamp dt:dt="int">0</Timestamp><DateUtc dt:dt="string">2019-10-23T09:19:17Z</DateUtc></StartTime><FrequencyChanges><FrequencyChange><Frequency dt:dt="r8">2835936</Frequency><Timestamp dt:dt="r8">1566065164</Timestamp><Current dt:dt="r8">0</Current><DateUtc dt:dt="string">2019-10-23T09:19:17Z</DateUtc></FrequencyChange></FrequencyChanges></Clock>\n	Generico_V2-2-1	59.996	1.0.0.341	Mouse	1	Keyboard	1566578771	Full	3.0.3.80	3.0.3.80	10-23-2019	23/10/2019 9:19:17	11:19:17	3..0.3.82	Mouse	1	1	1	1	Mouse	BlockProc	BlockList	14	1	1	Mouse	-999999	24	1479837	0	1	2779	1482616		0	0	0	0	1	prop.name	Mouse	-999999	29	1469037	0	1	2675	1471712	8.shakira	8.shakira_400	filler	TrialProc	fill.Shakira	TrialList1	shakira	Mouse				40	1	10			
Generico_V2	2	1	<?xml version="1.0"?>\n<Clock xmlns:dt="urn:schemas-microsoft-com:datatypes"><Description dt:dt="string">E-Prime Primary Realtime Clock</Description><StartTime><Timestamp dt:dt="int">0</Timestamp><DateUtc dt:dt="string">2019-10-23T09:19:17Z</DateUtc></StartTime><FrequencyChanges><FrequencyChange><Frequency dt:dt="r8">2835936</Frequency><Timestamp dt:dt="r8">1566065164</Timestamp><Current dt:dt="r8">0</Current><DateUtc dt:dt="string">2019-10-23T09:19:17Z</DateUtc></FrequencyChange></FrequencyChanges></Clock>\n	Generico_V2-2-1	59.996	1.0.0.341	Mouse	1	Keyboard	1566578771	Full	3.0.3.80	3.0.3.80	10-23-2019	23/10/2019 9:19:17	11:19:17	3..0.3.82	Mouse	1	1	1	1	Mouse	BlockProc	BlockList	15	1	2	Mouse	-999999	18	1494154	0	2	2734	1496888		0	0	0	0	2	generic	Mouse	-999999	38	1482654	0	1	2706	1485360	12.pizza_cuadrada	12.pizza_cuadrada_400	filler	TrialProc	fill.pizzas	TrialList1	pizza	Mouse				28	1	11			
Generico_V2	2	1	<?xml version="1.0"?>\n<Clock xmlns:dt="urn:schemas-microsoft-com:datatypes"><Description dt:dt="string">E-Prime Primary Realtime Clock</Description><StartTime><Timestamp dt:dt="int">0</Timestamp><DateUtc dt:dt="string">2019-10-23T09:19:17Z</DateUtc></StartTime><FrequencyChanges><FrequencyChange><Frequency dt:dt="r8">2835936</Frequency><Timestamp dt:dt="r8">1566065164</Timestamp><Current dt:dt="r8">0</Current><DateUtc dt:dt="string">2019-10-23T09:19:17Z</DateUtc></FrequencyChange></FrequencyChanges></Clock>\n	Generico_V2-2-1	59.996	1.0.0.341	Mouse	1	Keyboard	1566578771	Full	3.0.3.80	3.0.3.80	10-23-2019	23/10/2019 9:19:17	11:19:17	3..0.3.82	Mouse	1	1	1	1	Mouse	BlockProc	BlockList	16	1	2	Mouse	-999999	25	1509421	0	2	2771	1512192		0	0	0	0	2	prop.name	Mouse	-999999	33	1496921	0	1	4303	1501224	12.olentzero	12.olentzero_400	filler	TrialProc	fill.Olentzero	TrialList1	olentzero	Mouse				44	1	12			
Generico_V2	2	1	<?xml version="1.0"?>\n<Clock xmlns:dt="urn:schemas-microsoft-com:datatypes"><Description dt:dt="string">E-Prime Primary Realtime Clock</Description><StartTime><Timestamp dt:dt="int">0</Timestamp><DateUtc dt:dt="string">2019-10-23T09:19:17Z</DateUtc></StartTime><FrequencyChanges><FrequencyChange><Frequency dt:dt="r8">2835936</Frequency><Timestamp dt:dt="r8">1566065164</Timestamp><Current dt:dt="r8">0</Current><DateUtc dt:dt="string">2019-10-23T09:19:17Z</DateUtc></FrequencyChange></FrequencyChanges></Clock>\n	Generico_V2-2-1	59.996	1.0.0.341	Mouse	1	Keyboard	1566578771	Full	3.0.3.80	3.0.3.80	10-23-2019	23/10/2019 9:19:17	11:19:17	3..0.3.82	Mouse	1	1	1	1	Mouse	BlockProc	BlockList	17	1	1	Mouse	-999999	25	1522121	0	1	3127	1525248		0	0	0	0	1	generic	Mouse	-999999	46	1512238	0	1	1114	1513352	2.perro.sin.cola	2.perro.sin.cola_400	critical	TrialProc	gen.perros..cola	TrialList1	perro	Mouse				2	1	13			
Generico_V2	2	1	<?xml version="1.0"?>\n<Clock xmlns:dt="urn:schemas-microsoft-com:datatypes"><Description dt:dt="string">E-Prime Primary Realtime Clock</Description><StartTime><Timestamp dt:dt="int">0</Timestamp><DateUtc dt:dt="string">2019-10-23T09:19:17Z</DateUtc></StartTime><FrequencyChanges><FrequencyChange><Frequency dt:dt="r8">2835936</Frequency><Timestamp dt:dt="r8">1566065164</Timestamp><Current dt:dt="r8">0</Current><DateUtc dt:dt="string">2019-10-23T09:19:17Z</DateUtc></FrequencyChange></FrequencyChanges></Clock>\n	Generico_V2-2-1	59.996	1.0.0.341	Mouse	1	Keyboard	1566578771	Full	3.0.3.80	3.0.3.80	10-23-2019	23/10/2019 9:19:17	11:19:17	3..0.3.82	Mouse	1	1	1	1	Mouse	BlockProc	BlockList	18	1	2	Mouse	-999999	12	1537255	0	2	2785	1540040		0	0	0	0	2	universal	Mouse	-999999	40	1525288	0	1	3272	1528560	10.black.pig	10.black.pig_400	critical	TrialProc	uni.cerdos.rosa	TrialList1	cerdo	Mouse				10	1	14			
Generico_V2	2	1	<?xml version="1.0"?>\n<Clock xmlns:dt="urn:schemas-microsoft-com:datatypes"><Description dt:dt="string">E-Prime Primary Realtime Clock</Description><StartTime><Timestamp dt:dt="int">0</Timestamp><DateUtc dt:dt="string">2019-10-23T09:19:17Z</DateUtc></StartTime><FrequencyChanges><FrequencyChange><Frequency dt:dt="r8">2835936</Frequency><Timestamp dt:dt="r8">1566065164</Timestamp><Current dt:dt="r8">0</Current><DateUtc dt:dt="string">2019-10-23T09:19:17Z</DateUtc></FrequencyChange></FrequencyChanges></Clock>\n	Generico_V2-2-1	59.996	1.0.0.341	Mouse	1	Keyboard	1566578771	Full	3.0.3.80	3.0.3.80	10-23-2019	23/10/2019 9:19:17	11:19:17	3..0.3.82	Mouse	1	1	1	1	Mouse	BlockProc	BlockList	19	1	1	Mouse	-999999	13	1551122	0	1	3070	1554192		0	0	0	0	1	prop.name	Mouse	-999999	32	1540072	0	1	2376	1542448	7.donald.duck	7.donald.duck_400	filler	TrialProc	fill.Pato.Donald	TrialList1	pato_donald	Mouse				39	1	15			
Generico_V2	2	1	<?xml version="1.0"?>\n<Clock xmlns:dt="urn:schemas-microsoft-com:datatypes"><Description dt:dt="string">E-Prime Primary Realtime Clock</Description><StartTime><Timestamp dt:dt="int">0</Timestamp><DateUtc dt:dt="string">2019-10-23T09:19:17Z</DateUtc></StartTime><FrequencyChanges><FrequencyChange><Frequency dt:dt="r8">2835936</Frequency><Timestamp dt:dt="r8">1566065164</Timestamp><Current dt:dt="r8">0</Current><DateUtc dt:dt="string">2019-10-23T09:19:17Z</DateUtc></FrequencyChange></FrequencyChanges></Clock>\n	Generico_V2-2-1	59.996	1.0.0.341	Mouse	1	Keyboard	1566578771	Full	3.0.3.80	3.0.3.80	10-23-2019	23/10/2019 9:19:17	11:19:17	3..0.3.82	Mouse	1	1	1	1	Mouse	BlockProc	BlockList	20	1	2	Mouse	-999999	26	1567689	0	2	3487	1571176		0	0	0	0	2	universal	Mouse	-999999	30	1554222	0	1	2650	1556872	13.Giraffe-With-a-Short-Neck	13.Giraffe-With-a-Short-Neck_400	critical	TrialProc	uni.jirafas.cuello	TrialList1	jirafa	Mouse				13	1	16			
Generico_V2	2	1	<?xml version="1.0"?>\n<Clock xmlns:dt="urn:schemas-microsoft-com:datatypes"><Description dt:dt="string">E-Prime Primary Realtime Clock</Description><StartTime><Timestamp dt:dt="int">0</Timestamp><DateUtc dt:dt="string">2019-10-23T09:19:17Z</DateUtc></StartTime><FrequencyChanges><FrequencyChange><Frequency dt:dt="r8">2835936</Frequency><Timestamp dt:dt="r8">1566065164</Timestamp><Current dt:dt="r8">0</Current><DateUtc dt:dt="string">2019-10-23T09:19:17Z</DateUtc></FrequencyChange></FrequencyChanges></Clock>\n	Generico_V2-2-1	59.996	1.0.0.341	Mouse	1	Keyboard	1566578771	Full	3.0.3.80	3.0.3.80	10-23-2019	23/10/2019 9:19:17	11:19:17	3..0.3.82	Mouse	1	1	1	1	Mouse	BlockProc	BlockList	21	1	2	Mouse	-999999	24	1582490	0	2	5022	1587512		0	0	0	0	2	generic	Mouse	-999999	30	1571206	0	2	1882	1573088	16.silla.plastico	16.silla.plastico_400	filler	TrialProc	fill.sillas.plastico	TrialList1	silla	Mouse				32	1	17			
Generico_V2	2	1	<?xml version="1.0"?>\n<Clock xmlns:dt="urn:schemas-microsoft-com:datatypes"><Description dt:dt="string">E-Prime Primary Realtime Clock</Description><StartTime><Timestamp dt:dt="int">0</Timestamp><DateUtc dt:dt="string">2019-10-23T09:19:17Z</DateUtc></StartTime><FrequencyChanges><FrequencyChange><Frequency dt:dt="r8">2835936</Frequency><Timestamp dt:dt="r8">1566065164</Timestamp><Current dt:dt="r8">0</Current><DateUtc dt:dt="string">2019-10-23T09:19:17Z</DateUtc></FrequencyChange></FrequencyChanges></Clock>\n	Generico_V2-2-1	59.996	1.0.0.341	Mouse	1	Keyboard	1566578771	Full	3.0.3.80	3.0.3.80	10-23-2019	23/10/2019 9:19:17	11:19:17	3..0.3.82	Mouse	1	1	1	1	Mouse	BlockProc	BlockList	22	1	2	Mouse	-999999	28	1599457	0	2	3455	1602912		0	0	0	0	2	universal	Mouse	-999999	28	1587540	0	2	1996	1589536	14.4_winged_chicken	14.4_winged_chicken_400	critical	TrialProc	uni.gallinas.alas	TrialList1	gallina	Mouse				14	1	18			
Generico_V2	2	1	<?xml version="1.0"?>\n<Clock xmlns:dt="urn:schemas-microsoft-com:datatypes"><Description dt:dt="string">E-Prime Primary Realtime Clock</Description><StartTime><Timestamp dt:dt="int">0</Timestamp><DateUtc dt:dt="string">2019-10-23T09:19:17Z</DateUtc></StartTime><FrequencyChanges><FrequencyChange><Frequency dt:dt="r8">2835936</Frequency><Timestamp dt:dt="r8">1566065164</Timestamp><Current dt:dt="r8">0</Current><DateUtc dt:dt="string">2019-10-23T09:19:17Z</DateUtc></FrequencyChange></FrequencyChanges></Clock>\n	Generico_V2-2-1	59.996	1.0.0.341	Mouse	1	Keyboard	1566578771	Full	3.0.3.80	3.0.3.80	10-23-2019	23/10/2019 9:19:17	11:19:17	3..0.3.82	Mouse	1	1	1	1	Mouse	BlockProc	BlockList	23	1	1	Mouse	-999999	24	1613757	0	1	2811	1616568		0	0	0	0	1	prop.name	Mouse	-999999	28	1602940	0	1	2052	1604992	5.ibaiondo.piscina	5.ibaiondo.piscina_400	filler	TrialProc	fill.Ibaiondo	TrialList1	ibaiondo	Mouse				37	1	19			
Generico_V2	2	1	<?xml version="1.0"?>\n<Clock xmlns:dt="urn:schemas-microsoft-com:datatypes"><Description dt:dt="string">E-Prime Primary Realtime Clock</Description><StartTime><Timestamp dt:dt="int">0</Timestamp><DateUtc dt:dt="string">2019-10-23T09:19:17Z</DateUtc></StartTime><FrequencyChanges><FrequencyChange><Frequency dt:dt="r8">2835936</Frequency><Timestamp dt:dt="r8">1566065164</Timestamp><Current dt:dt="r8">0</Current><DateUtc dt:dt="string">2019-10-23T09:19:17Z</DateUtc></FrequencyChange></FrequencyChanges></Clock>\n	Generico_V2-2-1	59.996	1.0.0.341	Mouse	1	Keyboard	1566578771	Full	3.0.3.80	3.0.3.80	10-23-2019	23/10/2019 9:19:17	11:19:17	3..0.3.82	Mouse	1	1	1	1	Mouse	BlockProc	BlockList	24	1	2	Mouse	-999999	24	1626774	0	2	2466	1629240		0	0	0	0	2	prop.name	Mouse	-999999	39	1616607	0	1	1593	1618200	10.Oscar	10.Oscar_400	filler	TrialProc	fill.Oscar	TrialList1	oscar	Mouse				42	1	20			
Generico_V2	2	1	<?xml version="1.0"?>\n<Clock xmlns:dt="urn:schemas-microsoft-com:datatypes"><Description dt:dt="string">E-Prime Primary Realtime Clock</Description><StartTime><Timestamp dt:dt="int">0</Timestamp><DateUtc dt:dt="string">2019-10-23T09:19:17Z</DateUtc></StartTime><FrequencyChanges><FrequencyChange><Frequency dt:dt="r8">2835936</Frequency><Timestamp dt:dt="r8">1566065164</Timestamp><Current dt:dt="r8">0</Current><DateUtc dt:dt="string">2019-10-23T09:19:17Z</DateUtc></FrequencyChange></FrequencyChanges></Clock>\n	Generico_V2-2-1	59.996	1.0.0.341	Mouse	1	Keyboard	1566578771	Full	3.0.3.80	3.0.3.80	10-23-2019	23/10/2019 9:19:17	11:19:17	3..0.3.82	Mouse	1	1	1	1	Mouse	BlockProc	BlockList	25	1	2	Mouse	-999999	25	1639258	0	2	3118	1642376		0	0	0	0	2	prop.name	Mouse	-999999	34	1629274	0	1	1286	1630560	11.winter-christmas-tree	11.winter-christmas-tree_400	filler	TrialProc	fill.Navidades	TrialList1	navidad	Mouse				43	1	21			
Generico_V2	2	1	<?xml version="1.0"?>\n<Clock xmlns:dt="urn:schemas-microsoft-com:datatypes"><Description dt:dt="string">E-Prime Primary Realtime Clock</Description><StartTime><Timestamp dt:dt="int">0</Timestamp><DateUtc dt:dt="string">2019-10-23T09:19:17Z</DateUtc></StartTime><FrequencyChanges><FrequencyChange><Frequency dt:dt="r8">2835936</Frequency><Timestamp dt:dt="r8">1566065164</Timestamp><Current dt:dt="r8">0</Current><DateUtc dt:dt="string">2019-10-23T09:19:17Z</DateUtc></FrequencyChange></FrequencyChanges></Clock>\n	Generico_V2-2-1	59.996	1.0.0.341	Mouse	1	Keyboard	1566578771	Full	3.0.3.80	3.0.3.80	10-23-2019	23/10/2019 9:19:17	11:19:17	3.0.3.82	Mouse	1	1	1	1	Mouse	BlockProc	BlockList	26	1	2	Mouse	-999999	22	1652775	0	2	3929	1656704		0	0	0	0	2	generic	Mouse	-999999	32	1642408	0	1	1408	1643816	4.curly.haired.girl	4.curly.haired.girl_400	filler	TrialProc	fill..niñas.rizos	TrialList1	niña_rizados	Mouse				20	1	22			
Generico_V2	2	1	<?xml version="1.0"?>\n<Clock xmlns:dt="urn:schemas-microsoft-com:datatypes"><Description dt:dt="string">E-Prime Primary Realtime Clock</Description><StartTime><Timestamp dt:dt="int">0</Timestamp><DateUtc dt:dt="string">2019-10-23T09:19:17Z</DateUtc></StartTime><FrequencyChanges><FrequencyChange><Frequency dt:dt="r8">2835936</Frequency><Timestamp dt:dt="r8">1566065164</Timestamp><Current dt:dt="r8">0</Current><DateUtc dt:dt="string">2019-10-23T09:19:17Z</DateUtc></FrequencyChange></FrequencyChanges></Clock>\n	Generico_V2-2-1	59.996	1.0.0.341	Mouse	1	Keyboard	1566578771	Full	3.0.3.80	3.0.3.80	10-23-2019	23/10/2019 9:19:17	11:19:17	3..0.3.82	Mouse	1	1	1	1	Mouse	BlockProc	BlockList	27	1	2	Mouse	-999999	13	1666809	0	2	239	1667048		0	0	0	0	2	generic	Mouse	-999999	38	1656742	0	1	1842	1658584	15.cama.redonda	15.cama.redonda_400	filler	TrialProc	fill.camas.redondas	TrialList1	cama	Mouse				31	1	23			
Generico_V2	2	1	<?xml version="1.0"?>\n<Clock xmlns:dt="urn:schemas-microsoft-com:datatypes"><Description dt:dt="string">E-Prime Primary Realtime Clock</Description><StartTime><Timestamp dt:dt="int">0</Timestamp><DateUtc dt:dt="string">2019-10-23T09:19:17Z</DateUtc></StartTime><FrequencyChanges><FrequencyChange><Frequency dt:dt="r8">2835936</Frequency><Timestamp dt:dt="r8">1566065164</Timestamp><Current dt:dt="r8">0</Current><DateUtc dt:dt="string">2019-10-23T09:19:17Z</DateUtc></FrequencyChange></FrequencyChanges></Clock>\n	Generico_V2-2-1	59.996	1.0.0.341	Mouse	1	Keyboard	1566578771	Full	3.0.3.80	3.0.3.80	10-23-2019	23/10/2019 9:19:17	11:19:17	3..0.3.82	Mouse	1	1	1	1	Mouse	BlockProc	BlockList	28	0	1	Mouse	-999999	20	1682526	0	2	6002	1688528		0	0	0	0	1	generic	Mouse	-999999	44	1667092	0	2	4620	1671712	8.disabled.man	8.disabled.man_400	critical	TrialProc	gen.personas.brazos	TrialList1	persona_brazos	Mouse				8	1	24			
Generico_V2	2	1	<?xml version="1.0"?>\n<Clock xmlns:dt="urn:schemas-microsoft-com:datatypes"><Description dt:dt="string">E-Prime Primary Realtime Clock</Description><StartTime><Timestamp dt:dt="int">0</Timestamp><DateUtc dt:dt="string">2019-10-23T09:19:17Z</DateUtc></StartTime><FrequencyChanges><FrequencyChange><Frequency dt:dt="r8">2835936</Frequency><Timestamp dt:dt="r8">1566065164</Timestamp><Current dt:dt="r8">0</Current><DateUtc dt:dt="string">2019-10-23T09:19:17Z</DateUtc></FrequencyChange></FrequencyChanges></Clock>\n	Generico_V2-2-1	59.996	1.0.0.341	Mouse	1	Keyboard	1566578771	Full	3.0.3.80	3.0.3.80	10-23-2019	23/10/2019 9:19:17	11:19:17	3..0.3.82	Mouse	1	1	1	1	Mouse	BlockProc	BlockList	29	1	1	Mouse	-999999	28	1748061	0	1	4011	1752072	Mouse	1688	23958.4509427571	1062	0	1	generic	Mouse	-999999	52	1733094	0	1	5050	1738144	5.ciervo.sin.cuernos	5.ciervo.sin.cuernos_400	critical	TrialProc	gen.ciervos.cuernos	TrialList1	ciervo	Mouse				5	1	25			
Generico_V2	2	1	<?xml version="1.0"?>\n<Clock xmlns:dt="urn:schemas-microsoft-com:datatypes"><Description dt:dt="string">E-Prime Primary Realtime Clock</Description><StartTime><Timestamp dt:dt="int">0</Timestamp><DateUtc dt:dt="string">2019-10-23T09:19:17Z</DateUtc></StartTime><FrequencyChanges><FrequencyChange><Frequency dt:dt="r8">2835936</Frequency><Timestamp dt:dt="r8">1566065164</Timestamp><Current dt:dt="r8">0</Current><DateUtc dt:dt="string">2019-10-23T09:19:17Z</DateUtc></FrequencyChange></FrequencyChanges></Clock>\n	Generico_V2-2-1	59.996	1.0.0.341	Mouse	1	Keyboard	1566578771	Full	3.0.3.80	3.0.3.80	10-23-2019	23/10/2019 9:19:17	11:19:17	3..0.3.82	Mouse	1	1	1	1	Mouse	BlockProc	BlockList	30	1	1	Mouse	-999999	26	1763712	0	1	2840	1766552		1688	23958.4509427571	1062	0	1	prop.name	Mouse	-999999	39	1752111	0	1	3049	1755160	4.peter_pan	4.peter_pan_400	filler	TrialProc	fill.Peter.Pan	TrialList1	peterpan	Mouse				36	1	26			
Generico_V2	2	1	<?xml version="1.0"?>\n<Clock xmlns:dt="urn:schemas-microsoft-com:datatypes"><Description dt:dt="string">E-Prime Primary Realtime Clock</Description><StartTime><Timestamp dt:dt="int">0</Timestamp><DateUtc dt:dt="string">2019-10-23T09:19:17Z</DateUtc></StartTime><FrequencyChanges><FrequencyChange><Frequency dt:dt="r8">2835936</Frequency><Timestamp dt:dt="r8">1566065164</Timestamp><Current dt:dt="r8">0</Current><DateUtc dt:dt="string">2019-10-23T09:19:17Z</DateUtc></FrequencyChange></FrequencyChanges></Clock>\n	Generico_V2-2-1	59.996	1.0.0.341	Mouse	1	Keyboard	1566578771	Full	3.0.3.80	3.0.3.80	10-23-2019	23/10/2019 9:19:17	11:19:17	3..0.3.82	Mouse	1	1	1	1	Mouse	BlockProc	BlockList	31	1	2	Mouse	-999999	20	1777679	0	2	3433	1781112		1688	23958.4509427571	1062	0	2	generic	Mouse	-999999	43	1766595	0	1	1957	1768552	11.restaurante_italiano	11.restaurante_italiano_400	filler	TrialProc	fill.restaurantes	TrialList1	restaurante	Mouse				27	1	27			
Generico_V2	2	1	<?xml version="1.0"?>\n<Clock xmlns:dt="urn:schemas-microsoft-com:datatypes"><Description dt:dt="string">E-Prime Primary Realtime Clock</Description><StartTime><Timestamp dt:dt="int">0</Timestamp><DateUtc dt:dt="string">2019-10-23T09:19:17Z</DateUtc></StartTime><FrequencyChanges><FrequencyChange><Frequency dt:dt="r8">2835936</Frequency><Timestamp dt:dt="r8">1566065164</Timestamp><Current dt:dt="r8">0</Current><DateUtc dt:dt="string">2019-10-23T09:19:17Z</DateUtc></FrequencyChange></FrequencyChanges></Clock>\n	Generico_V2-2-1	59.996	1.0.0.341	Mouse	1	Keyboard	1566578771	Full	3.0.3.80	3.0.3.80	10-23-2019	23/10/2019 9:19:17	11:19:17	3..0.3.82	Mouse	1	1	1	1	Mouse	BlockProc	BlockList	32	1	1	Mouse	-999999	24	1794063	0	1	17	1794080		1688	23958.4509427571	1062	0	1	generic	Mouse	-999999	33	1781145	0	1	2487	1783632	1.gato.sin.bigotes	1.gato.sin.bigotes_400	critical	TrialProc	gen.gatos.bigotes	TrialList1	gato	Mouse				1	1	28			
Generico_V2	2	1	<?xml version="1.0"?>\n<Clock xmlns:dt="urn:schemas-microsoft-com:datatypes"><Description dt:dt="string">E-Prime Primary Realtime Clock</Description><StartTime><Timestamp dt:dt="int">0</Timestamp><DateUtc dt:dt="string">2019-10-23T09:19:17Z</DateUtc></StartTime><FrequencyChanges><FrequencyChange><Frequency dt:dt="r8">2835936</Frequency><Timestamp dt:dt="r8">1566065164</Timestamp><Current dt:dt="r8">0</Current><DateUtc dt:dt="string">2019-10-23T09:19:17Z</DateUtc></FrequencyChange></FrequencyChanges></Clock>\n	Generico_V2-2-1	59.996	1.0.0.341	Mouse	1	Keyboard	1566578771	Full	3.0.3.80	3.0.3.80	10-23-2019	23/10/2019 9:19:17	11:19:17	3..0.3.82	Mouse	1	1	1	1	Mouse	BlockProc	BlockList	33	1	2	Mouse	-999999	20	1807063	0	2	2905	1809968		1688	23958.4509427571	1062	0	2	universal	Mouse	-999999	32	1794112	0	1	2672	1796784	16.vaca.blanca	16.vaca.blanca_400	critical	TrialProc	uni.vacas.manchas	TrialList1	vaca	Mouse				16	1	29			
Generico_V2	2	1	<?xml version="1.0"?>\n<Clock xmlns:dt="urn:schemas-microsoft-com:datatypes"><Description dt:dt="string">E-Prime Primary Realtime Clock</Description><StartTime><Timestamp dt:dt="int">0</Timestamp><DateUtc dt:dt="string">2019-10-23T09:19:17Z</DateUtc></StartTime><FrequencyChanges><FrequencyChange><Frequency dt:dt="r8">2835936</Frequency><Timestamp dt:dt="r8">1566065164</Timestamp><Current dt:dt="r8">0</Current><DateUtc dt:dt="string">2019-10-23T09:19:17Z</DateUtc></FrequencyChange></FrequencyChanges></Clock>\n	Generico_V2-2-1	59.996	1.0.0.341	Mouse	1	Keyboard	1566578771	Full	3.0.3.80	3.0.3.80	10-23-2019	23/10/2019 9:19:17	11:19:17	3..0.3.82	Mouse	1	1	1	1	Mouse	BlockProc	BlockList	34	1	2	Mouse	-999999	18	1820447	0	2	2953	1823400		1688	23958.4509427571	1062	0	2	universal	Mouse	-999999	45	1810013	0	1	1227	1811240	11.bald-beauty	11.bald-beauty_400	critical	TrialProc	uni.personas.pelo	TrialList1	persona_pelo	Mouse				11	1	30			
Generico_V2	2	1	<?xml version="1.0"?>\n<Clock xmlns:dt="urn:schemas-microsoft-com:datatypes"><Description dt:dt="string">E-Prime Primary Realtime Clock</Description><StartTime><Timestamp dt:dt="int">0</Timestamp><DateUtc dt:dt="string">2019-10-23T09:19:17Z</DateUtc></StartTime><FrequencyChanges><FrequencyChange><Frequency dt:dt="r8">2835936</Frequency><Timestamp dt:dt="r8">1566065164</Timestamp><Current dt:dt="r8">0</Current><DateUtc dt:dt="string">2019-10-23T09:19:17Z</DateUtc></FrequencyChange></FrequencyChanges></Clock>\n	Generico_V2-2-1	59.996	1.0.0.341	Mouse	1	Keyboard	1566578771	Full	3.0.3.80	3.0.3.80	10-23-2019	23/10/2019 9:19:17	11:19:17	3..0.3.82	Mouse	1	1	1	1	Mouse	BlockProc	BlockList	35	1	2	Mouse	-999999	17	1833180	0	2	3156	1836336		1688	23958.4509427571	1062	0	2	generic	Mouse	-999999	30	1823430	0	1	1202	1824632	7.mesa.verde	7.mesa.verde_400	filler	TrialProc	fill.mesas.verdes	TrialList1	mesa	Mouse				23	1	31			
Generico_V2	2	1	<?xml version="1.0"?>\n<Clock xmlns:dt="urn:schemas-microsoft-com:datatypes"><Description dt:dt="string">E-Prime Primary Realtime Clock</Description><StartTime><Timestamp dt:dt="int">0</Timestamp><DateUtc dt:dt="string">2019-10-23T09:19:17Z</DateUtc></StartTime><FrequencyChanges><FrequencyChange><Frequency dt:dt="r8">2835936</Frequency><Timestamp dt:dt="r8">1566065164</Timestamp><Current dt:dt="r8">0</Current><DateUtc dt:dt="string">2019-10-23T09:19:17Z</DateUtc></FrequencyChange></FrequencyChanges></Clock>\n	Generico_V2-2-1	59.996	1.0.0.341	Mouse	1	Keyboard	1566578771	Full	3.0.3.80	3.0.3.80	10-23-2019	23/10/2019 9:19:17	11:19:17	3..0.3.82	Mouse	1	1	1	1	Mouse	BlockProc	BlockList	36	1	2	Mouse	-999999	18	1847431	0	2	3313	1850744		1688	23958.4509427571	1062	0	2	universal	Mouse	-999999	44	1836380	0	1	1548	1837928	15.rana.con3ojos	15.rana.con3ojos_400	critical	TrialProc	uni.ranas.ojos	TrialList1	rana	Mouse				15	1	32			
Generico_V2	2	1	<?xml version="1.0"?>\n<Clock xmlns:dt="urn:schemas-microsoft-com:datatypes"><Description dt:dt="string">E-Prime Primary Realtime Clock</Description><StartTime><Timestamp dt:dt="int">0</Timestamp><DateUtc dt:dt="string">2019-10-23T09:19:17Z</DateUtc></StartTime><FrequencyChanges><FrequencyChange><Frequency dt:dt="r8">2835936</Frequency><Timestamp dt:dt="r8">1566065164</Timestamp><Current dt:dt="r8">0</Current><DateUtc dt:dt="string">2019-10-23T09:19:17Z</DateUtc></FrequencyChange></FrequencyChanges></Clock>\n	Generico_V2-2-1	59.996	1.0.0.341	Mouse	1	Keyboard	1566578771	Full	3.0.3.80	3.0.3.80	10-23-2019	23/10/2019 9:19:17	11:19:17	3..0.3.82	Mouse	1	1	1	1	Mouse	BlockProc	BlockList	37	1	2	Mouse	-999999	28	1861598	0	2	4234	1865832		1688	23958.4509427571	1062	0	2	prop.name	Mouse	-999999	37	1850781	0	1	2395	1853176	9.alaves	9.alaves_400	filler	TrialProc	fill.Alaves	TrialList1	alaves	Mouse				41	1	33			
Generico_V2	2	1	<?xml version="1.0"?>\n<Clock xmlns:dt="urn:schemas-microsoft-com:datatypes"><Description dt:dt="string">E-Prime Primary Realtime Clock</Description><StartTime><Timestamp dt:dt="int">0</Timestamp><DateUtc dt:dt="string">2019-10-23T09:19:17Z</DateUtc></StartTime><FrequencyChanges><FrequencyChange><Frequency dt:dt="r8">2835936</Frequency><Timestamp dt:dt="r8">1566065164</Timestamp><Current dt:dt="r8">0</Current><DateUtc dt:dt="string">2019-10-23T09:19:17Z</DateUtc></FrequencyChange></FrequencyChanges></Clock>\n	Generico_V2-2-1	59.996	1.0.0.341	Mouse	1	Keyboard	1566578771	Full	3.0.3.80	3.0.3.80	10-23-2019	23/10/2019 9:19:17	11:19:17	3..0.3.82	Mouse	1	1	1	1	Mouse	BlockProc	BlockList	38	1	1	Mouse	-999999	22	1876415	0	1	3233	1879648		1688	23958.4509427571	1062	0	1	generic	Mouse	-999999	33	1865865	0	1	1303	1867168	7.tuskless-elephant	7.tuskless-elephant_400	critical	TrialProc	gen.elefantes.colmillos	TrialList1	elefante	Mouse				7	1	34			
Generico_V2	2	1	<?xml version="1.0"?>\n<Clock xmlns:dt="urn:schemas-microsoft-com:datatypes"><Description dt:dt="string">E-Prime Primary Realtime Clock</Description><StartTime><Timestamp dt:dt="int">0</Timestamp><DateUtc dt:dt="string">2019-10-23T09:19:17Z</DateUtc></StartTime><FrequencyChanges><FrequencyChange><Frequency dt:dt="r8">2835936</Frequency><Timestamp dt:dt="r8">1566065164</Timestamp><Current dt:dt="r8">0</Current><DateUtc dt:dt="string">2019-10-23T09:19:17Z</DateUtc></FrequencyChange></FrequencyChanges></Clock>\n	Generico_V2-2-1	59.996	1.0.0.341	Mouse	1	Keyboard	1566578771	Full	3.0.3.80	3.0.3.80	10-23-2019	23/10/2019 9:19:17	11:19:17	3..0.3.82	Mouse	1	1	1	1	Mouse	BlockProc	BlockList	39	0	2	Mouse	-999999	22	1890415	0	1	3561	1893976		1688	23958.4509427571	1062	0	2	generic	Mouse	-999999	34	1879682	0	1	1654	1881336	2.pajaro.amarillo	2.pajaro.amarillo_400	filler	TrialProc	fill.pajaros.amarillos	TrialList1	pajaro	Mouse				18	1	35			
Generico_V2	2	1	<?xml version="1.0"?>\n<Clock xmlns:dt="urn:schemas-microsoft-com:datatypes"><Description dt:dt="string">E-Prime Primary Realtime Clock</Description><StartTime><Timestamp dt:dt="int">0</Timestamp><DateUtc dt:dt="string">2019-10-23T09:19:17Z</DateUtc></StartTime><FrequencyChanges><FrequencyChange><Frequency dt:dt="r8">2835936</Frequency><Timestamp dt:dt="r8">1566065164</Timestamp><Current dt:dt="r8">0</Current><DateUtc dt:dt="string">2019-10-23T09:19:17Z</DateUtc></FrequencyChange></FrequencyChanges></Clock>\n	Generico_V2-2-1	59.996	1.0.0.341	Mouse	1	Keyboard	1566578771	Full	3.0.3.80	3.0.3.80	10-23-2019	23/10/2019 9:19:17	11:19:17	3..0.3.82	Mouse	1	1	1	1	Mouse	BlockProc	BlockList	40	1	2	Mouse	-999999	23	1903216	0	2	4704	1907920		1688	23958.4509427571	1062	0	2	prop.name	Mouse	-999999	39	1894015	0	1	1225	1895240	15.garfio	15.garfio_400	filler	TrialProc	fill.Garfio	TrialList1	garfio	Mouse				47	1	36			
Generico_V2	2	1	<?xml version="1.0"?>\n<Clock xmlns:dt="urn:schemas-microsoft-com:datatypes"><Description dt:dt="string">E-Prime Primary Realtime Clock</Description><StartTime><Timestamp dt:dt="int">0</Timestamp><DateUtc dt:dt="string">2019-10-23T09:19:17Z</DateUtc></StartTime><FrequencyChanges><FrequencyChange><Frequency dt:dt="r8">2835936</Frequency><Timestamp dt:dt="r8">1566065164</Timestamp><Current dt:dt="r8">0</Current><DateUtc dt:dt="string">2019-10-23T09:19:17Z</DateUtc></FrequencyChange></FrequencyChanges></Clock>\n	Generico_V2-2-1	59.996	1.0.0.341	Mouse	1	Keyboard	1566578771	Full	3.0.3.80	3.0.3.80	10-23-2019	23/10/2019 9:19:17	11:19:17	3..0.3.82	Mouse	1	1	1	1	Mouse	BlockProc	BlockList	41	1	1	Mouse	-999999	20	1918116	0	1	3484	1921600		1688	23958.4509427571	1062	0	1	generic	Mouse	-999999	46	1907966	0	2	994	1908960	3.caballo.tres	3.caballo.tres_400	critical	TrialProc	gen.caballos.patas	TrialList1	caballo	Mouse				3	1	37			
Generico_V2	2	1	<?xml version="1.0"?>\n<Clock xmlns:dt="urn:schemas-microsoft-com:datatypes"><Description dt:dt="string">E-Prime Primary Realtime Clock</Description><StartTime><Timestamp dt:dt="int">0</Timestamp><DateUtc dt:dt="string">2019-10-23T09:19:17Z</DateUtc></StartTime><FrequencyChanges><FrequencyChange><Frequency dt:dt="r8">2835936</Frequency><Timestamp dt:dt="r8">1566065164</Timestamp><Current dt:dt="r8">0</Current><DateUtc dt:dt="string">2019-10-23T09:19:17Z</DateUtc></FrequencyChange></FrequencyChanges></Clock>\n	Generico_V2-2-1	59.996	1.0.0.341	Mouse	1	Keyboard	1566578771	Full	3.0.3.80	3.0.3.80	10-23-2019	23/10/2019 9:19:17	11:19:17	3..0.3.82	Mouse	1	1	1	1	Mouse	BlockProc	BlockList	42	1	2	Mouse	-999999	23	1932666	0	2	3022	1935688		1688	23958.4509427571	1062	0	2	generic	Mouse	-999999	49	1921649	0	1	1967	1923616	10.Casas-con-techo-de-chapas-negras	10.Casas-con-techo-de-chapas-negras_400	filler	TrialProc	fill.tejados	TrialList1	casa	Mouse				26	1	38			
Generico_V2	2	1	<?xml version="1.0"?>\n<Clock xmlns:dt="urn:schemas-microsoft-com:datatypes"><Description dt:dt="string">E-Prime Primary Realtime Clock</Description><StartTime><Timestamp dt:dt="int">0</Timestamp><DateUtc dt:dt="string">2019-10-23T09:19:17Z</DateUtc></StartTime><FrequencyChanges><FrequencyChange><Frequency dt:dt="r8">2835936</Frequency><Timestamp dt:dt="r8">1566065164</Timestamp><Current dt:dt="r8">0</Current><DateUtc dt:dt="string">2019-10-23T09:19:17Z</DateUtc></FrequencyChange></FrequencyChanges></Clock>\n	Generico_V2-2-1	59.996	1.0.0.341	Mouse	1	Keyboard	1566578771	Full	3.0.3.80	3.0.3.80	10-23-2019	23/10/2019 9:19:17	11:19:17	3..0.3.82	Mouse	1	1	1	1	Mouse	BlockProc	BlockList	43	1	1	Mouse	-999999	17	1946117	0	1	3651	1949768		1688	23958.4509427571	1062	0	1	prop.name	Mouse	-999999	45	1935733	0	1	1115	1936848	2.Virgen_Blanca	2.Virgen_Blanca_400	filler	TrialProc	fill.Virgen.Blanca	TrialList1	virgen_blanca	Mouse				34	1	39			
Generico_V2	2	1	<?xml version="1.0"?>\n<Clock xmlns:dt="urn:schemas-microsoft-com:datatypes"><Description dt:dt="string">E-Prime Primary Realtime Clock</Description><StartTime><Timestamp dt:dt="int">0</Timestamp><DateUtc dt:dt="string">2019-10-23T09:19:17Z</DateUtc></StartTime><FrequencyChanges><FrequencyChange><Frequency dt:dt="r8">2835936</Frequency><Timestamp dt:dt="r8">1566065164</Timestamp><Current dt:dt="r8">0</Current><DateUtc dt:dt="string">2019-10-23T09:19:17Z</DateUtc></FrequencyChange></FrequencyChanges></Clock>\n	Generico_V2-2-1	59.996	1.0.0.341	Mouse	1	Keyboard	1566578771	Full	3.0.3.80	3.0.3.80	10-23-2019	23/10/2019 9:19:17	11:19:17	3..0.3.82	Mouse	1	1	1	1	Mouse	BlockProc	BlockList	44	1	2	Mouse	-999999	20	1958267	0	2	2749	1961016		1688	23958.4509427571	1062	0	2	generic	Mouse	-999999	49	1949817	0	1	631	1950448	9.lechuga-morada	9.lechuga-morada_400	filler	TrialProc	fill.lechugas.moradas	TrialList1	lechuga	Mouse				25	1	40			
Generico_V2	2	1	<?xml version="1.0"?>\n<Clock xmlns:dt="urn:schemas-microsoft-com:datatypes"><Description dt:dt="string">E-Prime Primary Realtime Clock</Description><StartTime><Timestamp dt:dt="int">0</Timestamp><DateUtc dt:dt="string">2019-10-23T09:19:17Z</DateUtc></StartTime><FrequencyChanges><FrequencyChange><Frequency dt:dt="r8">2835936</Frequency><Timestamp dt:dt="r8">1566065164</Timestamp><Current dt:dt="r8">0</Current><DateUtc dt:dt="string">2019-10-23T09:19:17Z</DateUtc></FrequencyChange></FrequencyChanges></Clock>\n	Generico_V2-2-1	59.996	1.0.0.341	Mouse	1	Keyboard	1566578771	Full	3.0.3.80	3.0.3.80	10-23-2019	23/10/2019 9:19:17	11:19:17	3..0.3.82	Mouse	1	1	1	1	Mouse	BlockProc	BlockList	45	1	2	Mouse	-999999	18	1970651	0	2	3045	1973696		1688	23958.4509427571	1062	0	2	universal	Mouse	-999999	35	1961051	0	2	789	1961840	12.black.sheep	12.black.sheep_400	critical	TrialProc	uni.ovejas.blancas	TrialList1	oveja	Mouse				12	1	41			
Generico_V2	2	1	<?xml version="1.0"?>\n<Clock xmlns:dt="urn:schemas-microsoft-com:datatypes"><Description dt:dt="string">E-Prime Primary Realtime Clock</Description><StartTime><Timestamp dt:dt="int">0</Timestamp><DateUtc dt:dt="string">2019-10-23T09:19:17Z</DateUtc></StartTime><FrequencyChanges><FrequencyChange><Frequency dt:dt="r8">2835936</Frequency><Timestamp dt:dt="r8">1566065164</Timestamp><Current dt:dt="r8">0</Current><DateUtc dt:dt="string">2019-10-23T09:19:17Z</DateUtc></FrequencyChange></FrequencyChanges></Clock>\n	Generico_V2-2-1	59.996	1.0.0.341	Mouse	1	Keyboard	1566578771	Full	3.0.3.80	3.0.3.80	10-23-2019	23/10/2019 9:19:17	11:19:17	3..0.3.82	Mouse	1	1	1	1	Mouse	BlockProc	BlockList	46	0	2	Mouse	-999999	25	1982901	0	1	3067	1985968		1688	23958.4509427571	1062	0	2	generic	Mouse	-999999	38	1973734	0	1	1282	1975016	6.hoja.roja	6.hoja.roja_400	filler	TrialProc	fill.hojas.rojas	TrialList1	hoja_roja	Mouse				22	1	42			
Generico_V2	2	1	<?xml version="1.0"?>\n<Clock xmlns:dt="urn:schemas-microsoft-com:datatypes"><Description dt:dt="string">E-Prime Primary Realtime Clock</Description><StartTime><Timestamp dt:dt="int">0</Timestamp><DateUtc dt:dt="string">2019-10-23T09:19:17Z</DateUtc></StartTime><FrequencyChanges><FrequencyChange><Frequency dt:dt="r8">2835936</Frequency><Timestamp dt:dt="r8">1566065164</Timestamp><Current dt:dt="r8">0</Current><DateUtc dt:dt="string">2019-10-23T09:19:17Z</DateUtc></FrequencyChange></FrequencyChanges></Clock>\n	Generico_V2-2-1	59.996	1.0.0.341	Mouse	1	Keyboard	1566578771	Full	3.0.3.80	3.0.3.80	10-23-2019	23/10/2019 9:19:17	11:19:17	3..0.3.82	Mouse	1	1	1	1	Mouse	BlockProc	BlockList	47	1	1	Mouse	-999999	19	1995052	0	1	2613	1997665		1688	23958.4509427571	1062	0	1	prop.name	Mouse	-999999	33	1986001	0	1	719	1986720	1.Tour.Eiffel	1.Tour.Eiffel_400	filler	TrialProc	fill.Torre.alta	TrialList1	torre_eiffel	Mouse				33	1	43			
Generico_V2	2	1	<?xml version="1.0"?>\n<Clock xmlns:dt="urn:schemas-microsoft-com:datatypes"><Description dt:dt="string">E-Prime Primary Realtime Clock</Description><StartTime><Timestamp dt:dt="int">0</Timestamp><DateUtc dt:dt="string">2019-10-23T09:19:17Z</DateUtc></StartTime><FrequencyChanges><FrequencyChange><Frequency dt:dt="r8">2835936</Frequency><Timestamp dt:dt="r8">1566065164</Timestamp><Current dt:dt="r8">0</Current><DateUtc dt:dt="string">2019-10-23T09:19:17Z</DateUtc></FrequencyChange></FrequencyChanges></Clock>\n	Generico_V2-2-1	59.996	1.0.0.341	Mouse	1	Keyboard	1566578771	Full	3.0.3.80	3.0.3.80	10-23-2019	23/10/2019 9:19:17	11:19:17	3..0.3.82	Mouse	1	1	1	1	Mouse	BlockProc	BlockList	48	1	1	Mouse	-999999	13	2006852	0	1	3180	2010032		1688	23958.4509427571	1062	0	1	prop.name	Mouse	-999999	37	1997702	0	1	914	1998616	6.Portaventura	6.Portaventura_400	filler	TrialProc	fill.Port.Aventura	TrialList1	portaventura	Mouse				38	1	44			
Generico_V2	2	1	<?xml version="1.0"?>\n<Clock xmlns:dt="urn:schemas-microsoft-com:datatypes"><Description dt:dt="string">E-Prime Primary Realtime Clock</Description><StartTime><Timestamp dt:dt="int">0</Timestamp><DateUtc dt:dt="string">2019-10-23T09:19:17Z</DateUtc></StartTime><FrequencyChanges><FrequencyChange><Frequency dt:dt="r8">2835936</Frequency><Timestamp dt:dt="r8">1566065164</Timestamp><Current dt:dt="r8">0</Current><DateUtc dt:dt="string">2019-10-23T09:19:17Z</DateUtc></FrequencyChange></FrequencyChanges></Clock>\n	Generico_V2-2-1	59.996	1.0.0.341	Mouse	1	Keyboard	1566578771	Full	3.0.3.80	3.0.3.80	10-23-2019	23/10/2019 9:19:17	11:19:17	3..0.3.82	Mouse	1	1	1	1	Mouse	BlockProc	BlockList	49	0	2	Mouse	-999999	16	2019436	0	1	188	2019624		1688	23958.4509427571	1062	0	2	generic	Mouse	-999999	37	2010069	0	1	883	2010952	3.boy.with.glasses	3.boy.with.glasses_400	filler	TrialProc	fill.niños.gafas	TrialList1	niño_gafas	Mouse				19	1	45			
Generico_V2	2	1	<?xml version="1.0"?>\n<Clock xmlns:dt="urn:schemas-microsoft-com:datatypes"><Description dt:dt="string">E-Prime Primary Realtime Clock</Description><StartTime><Timestamp dt:dt="int">0</Timestamp><DateUtc dt:dt="string">2019-10-23T09:19:17Z</DateUtc></StartTime><FrequencyChanges><FrequencyChange><Frequency dt:dt="r8">2835936</Frequency><Timestamp dt:dt="r8">1566065164</Timestamp><Current dt:dt="r8">0</Current><DateUtc dt:dt="string">2019-10-23T09:19:17Z</DateUtc></FrequencyChange></FrequencyChanges></Clock>\n	Generico_V2-2-1	59.996	1.0.0.341	Mouse	1	Keyboard	1566578771	Full	3.0.3.80	3.0.3.80	10-23-2019	23/10/2019 9:19:17	11:19:17	3..0.3.82	Mouse	1	1	1	1	Mouse	BlockProc	BlockList	50	0	1	Mouse	-999999	27	2030003	0	2	757	2030760		1688	23958.4509427571	1062	0	1	generic	Mouse	-999999	45	2019669	0	1	1491	2021160	4.bee.no.wings	4.bee.no.wings_400	critical	TrialProc	gen.abejas.alas	TrialList1	abeja	Mouse				4	1	46			
Generico_V2	2	1	<?xml version="1.0"?>\n<Clock xmlns:dt="urn:schemas-microsoft-com:datatypes"><Description dt:dt="string">E-Prime Primary Realtime Clock</Description><StartTime><Timestamp dt:dt="int">0</Timestamp><DateUtc dt:dt="string">2019-10-23T09:19:17Z</DateUtc></StartTime><FrequencyChanges><FrequencyChange><Frequency dt:dt="r8">2835936</Frequency><Timestamp dt:dt="r8">1566065164</Timestamp><Current dt:dt="r8">0</Current><DateUtc dt:dt="string">2019-10-23T09:19:17Z</DateUtc></FrequencyChange></FrequencyChanges></Clock>\n	Generico_V2-2-1	59.996	1.0.0.341	Mouse	1	Keyboard	1566578771	Full	3.0.3.80	3.0.3.80	10-23-2019	23/10/2019 9:19:17	11:19:17	3..0.3.82	Mouse	1	1	1	1	Mouse	BlockProc	BlockList	51	0	2	Mouse	-999999	17	2041386	0	1	2510	2043896		1688	23958.4509427571	1062	0	2	generic	Mouse	-999999	43	2030803	0	2	1965	2032768	1.floquet	1.floquet_400	filler	TrialProc	fill.gorilas	TrialList1	gorila	Mouse				17	1	47			
Generico_V2	2	1	<?xml version="1.0"?>\n<Clock xmlns:dt="urn:schemas-microsoft-com:datatypes"><Description dt:dt="string">E-Prime Primary Realtime Clock</Description><StartTime><Timestamp dt:dt="int">0</Timestamp><DateUtc dt:dt="string">2019-10-23T09:19:17Z</DateUtc></StartTime><FrequencyChanges><FrequencyChange><Frequency dt:dt="r8">2835936</Frequency><Timestamp dt:dt="r8">1566065164</Timestamp><Current dt:dt="r8">0</Current><DateUtc dt:dt="string">2019-10-23T09:19:17Z</DateUtc></FrequencyChange></FrequencyChanges></Clock>\n	Generico_V2-2-1	59.996	1.0.0.341	Mouse	1	Keyboard	1566578771	Full	3.0.3.80	3.0.3.80	10-23-2019	23/10/2019 9:19:17	11:19:17	3.0.3.82	Mouse	1	1	1	1	Mouse	BlockProc	BlockList	52	0	2	Mouse	-999999	20	2055270	0	1	2890	2058160		1688	23958.4509427571	1062	0	2	generic	Mouse	-999999	40	2043936	0	1	3296	2047232	13.pincho-tortilla	13.pincho-tortilla_400	filler	TrialProc	fill.pintxos	TrialList1	pintxo	Mouse				29	1	48			
Generico_V2	10	1	<?xml version="1.0"?>\n<Clock xmlns:dt="urn:schemas-microsoft-com:datatypes"><Description dt:dt="string">E-Prime Primary Realtime Clock</Description><StartTime><Timestamp dt:dt="int">0</Timestamp><DateUtc dt:dt="string">2019-11-12T16:49:26Z</DateUtc></StartTime><FrequencyChanges><FrequencyChange><Frequency dt:dt="r8">10000000</Frequency><Timestamp dt:dt="r8">196639219981</Timestamp><Current dt:dt="r8">0</Current><DateUtc dt:dt="string">2019-11-12T16:49:26Z</DateUtc></FrequencyChange></FrequencyChanges></Clock>\n	Generico_V2-10-1	60.001	1.0.0.334	Mouse	1	Keyboard	-926672417	Full	3.0.3.80	3.0.3.80	11-12-2019	12/11/2019 16:49:26	17:49:26	3.0.3.82	Mouse	1	1	1	1	Mouse	BlockProc	BlockList	1	1	1,2	Mouse	-999999	26	134379	0	1	3403	137782		0	0	0	0	1,2	?	Mouse	-999999	46	124380	0	1	1350	125730	burro	burro_400	Practice	TrialProc	prac.burro.marron	TrainingList	burro	Mouse	1	1	1						
Generico_V2	10	1	<?xml version="1.0"?>\n<Clock xmlns:dt="urn:schemas-microsoft-com:datatypes"><Description dt:dt="string">E-Prime Primary Realtime Clock</Description><StartTime><Timestamp dt:dt="int">0</Timestamp><DateUtc dt:dt="string">2019-11-12T16:49:26Z</DateUtc></StartTime><FrequencyChanges><FrequencyChange><Frequency dt:dt="r8">10000000</Frequency><Timestamp dt:dt="r8">196639219981</Timestamp><Current dt:dt="r8">0</Current><DateUtc dt:dt="string">2019-11-12T16:49:26Z</DateUtc></FrequencyChange></FrequencyChanges></Clock>\n	Generico_V2-10-1	60.001	1.0.0.334	Mouse	1	Keyboard	-926672417	Full	3.0.3.80	3.0.3.80	11-12-2019	12/11/2019 16:49:26	17:49:26	3.0.3.82	Mouse	1	1	1	1	Mouse	BlockProc	BlockList	2	1	2	Mouse	-999999	18	151478	0	2	136	151614		0	0	0	0	2	?	Mouse	-999999	47	137829	0	1	4433	142262	camión	camión_400	Practice	TrialProc	prac.camion.bomberos	TrainingList	camion	Mouse	2	1	2						
Generico_V2	10	1	<?xml version="1.0"?>\n<Clock xmlns:dt="urn:schemas-microsoft-com:datatypes"><Description dt:dt="string">E-Prime Primary Realtime Clock</Description><StartTime><Timestamp dt:dt="int">0</Timestamp><DateUtc dt:dt="string">2019-11-12T16:49:26Z</DateUtc></StartTime><FrequencyChanges><FrequencyChange><Frequency dt:dt="r8">10000000</Frequency><Timestamp dt:dt="r8">196639219981</Timestamp><Current dt:dt="r8">0</Current><DateUtc dt:dt="string">2019-11-12T16:49:26Z</DateUtc></FrequencyChange></FrequencyChanges></Clock>\n	Generico_V2-10-1	60.001	1.0.0.334	Mouse	1	Keyboard	-926672417	Full	3.0.3.80	3.0.3.80	11-12-2019	12/11/2019 16:49:26	17:49:26	3.0.3.82	Mouse	1	1	1	1	Mouse	BlockProc	BlockList	3	1	1	Mouse	-999999	13	162943	0	1	3139	166082		0	0	0	0	1	?	Mouse	-999999	47	151661	0	2	161	151822	pato.blanco	pato.blanco_400	Practice	TrialProc	prac.pato.blanco	TrainingList	pato	Mouse	3	1	3						
Generico_V2	10	1	<?xml version="1.0"?>\n<Clock xmlns:dt="urn:schemas-microsoft-com:datatypes"><Description dt:dt="string">E-Prime Primary Realtime Clock</Description><StartTime><Timestamp dt:dt="int">0</Timestamp><DateUtc dt:dt="string">2019-11-12T16:49:26Z</DateUtc></StartTime><FrequencyChanges><FrequencyChange><Frequency dt:dt="r8">10000000</Frequency><Timestamp dt:dt="r8">196639219981</Timestamp><Current dt:dt="r8">0</Current><DateUtc dt:dt="string">2019-11-12T16:49:26Z</DateUtc></FrequencyChange></FrequencyChanges></Clock>\n	Generico_V2-10-1	60.001	1.0.0.334	Mouse	1	Keyboard	-926672417	Full	3.0.3.80	3.0.3.80	11-12-2019	12/11/2019 16:49:26	17:49:26	3.0.3.82	Mouse	1	1	1	1	Mouse	BlockProc	BlockList	4	1	1,2	Mouse	-999999	22	178009	0	2	3081	181090		0	0	0	0	1,2	?	Mouse	-999999	45	166127	0	1	1867	167994	cuchara	cuchara_400	Practice	TrialProc	prac.cuchara.madera	TrainingList	cuchara	Mouse	4	1	4						
Generico_V2	10	1	<?xml version="1.0"?>\n<Clock xmlns:dt="urn:schemas-microsoft-com:datatypes"><Description dt:dt="string">E-Prime Primary Realtime Clock</Description><StartTime><Timestamp dt:dt="int">0</Timestamp><DateUtc dt:dt="string">2019-11-12T16:49:26Z</DateUtc></StartTime><FrequencyChanges><FrequencyChange><Frequency dt:dt="r8">10000000</Frequency><Timestamp dt:dt="r8">196639219981</Timestamp><Current dt:dt="r8">0</Current><DateUtc dt:dt="string">2019-11-12T16:49:26Z</DateUtc></FrequencyChange></FrequencyChanges></Clock>\n	Generico_V2-10-1	60.001	1.0.0.334	Mouse	1	Keyboard	-926672417	Full	3.0.3.80	3.0.3.80	11-12-2019	12/11/2019 16:49:26	17:49:26	3.0.3.82	Mouse	1	1	1	1	Mouse	BlockProc	BlockList	5	1	1	Mouse	-999999	18	201974	0	1	3756	205730		0	0	0	0	1	generic	Mouse	-999999	45	190775	0	1	1523	192298	3.caballo.tres	3.caballo.tres_400	critical	TrialProc	gen.caballos.patas	TrialList1	caballo	Mouse				3	1	1			
Generico_V2	10	1	<?xml version="1.0"?>\n<Clock xmlns:dt="urn:schemas-microsoft-com:datatypes"><Description dt:dt="string">E-Prime Primary Realtime Clock</Description><StartTime><Timestamp dt:dt="int">0</Timestamp><DateUtc dt:dt="string">2019-11-12T16:49:26Z</DateUtc></StartTime><FrequencyChanges><FrequencyChange><Frequency dt:dt="r8">10000000</Frequency><Timestamp dt:dt="r8">196639219981</Timestamp><Current dt:dt="r8">0</Current><DateUtc dt:dt="string">2019-11-12T16:49:26Z</DateUtc></FrequencyChange></FrequencyChanges></Clock>\n	Generico_V2-10-1	60.001	1.0.0.334	Mouse	1	Keyboard	-926672417	Full	3.0.3.80	3.0.3.80	11-12-2019	12/11/2019 16:49:26	17:49:26	3.0.3.82	Mouse	1	1	1	1	Mouse	BlockProc	BlockList	6	1	2	Mouse	-999999	15	216823	0	2	3711	220534		0	0	0	0	2	generic	Mouse	-999999	44	205774	0	1	2344	208118	1.floquet	1.floquet_400	filler	TrialProc	fill.gorilas	TrialList1	gorila	Mouse				17	1	2			
Generico_V2	10	1	<?xml version="1.0"?>\n<Clock xmlns:dt="urn:schemas-microsoft-com:datatypes"><Description dt:dt="string">E-Prime Primary Realtime Clock</Description><StartTime><Timestamp dt:dt="int">0</Timestamp><DateUtc dt:dt="string">2019-11-12T16:49:26Z</DateUtc></StartTime><FrequencyChanges><FrequencyChange><Frequency dt:dt="r8">10000000</Frequency><Timestamp dt:dt="r8">196639219981</Timestamp><Current dt:dt="r8">0</Current><DateUtc dt:dt="string">2019-11-12T16:49:26Z</DateUtc></FrequencyChange></FrequencyChanges></Clock>\n	Generico_V2-10-1	60.001	1.0.0.334	Mouse	1	Keyboard	-926672417	Full	3.0.3.80	3.0.3.80	11-12-2019	12/11/2019 16:49:26	17:49:26	3.0.3.82	Mouse	1	1	1	1	Mouse	BlockProc	BlockList	7	1	1	Mouse	-999999	22	231305	0	1	3421	234726		0	0	0	0	1	prop.name	Mouse	-999999	39	220573	0	2	1973	222546	8.shakira	8.shakira_400	filler	TrialProc	fill.Shakira	TrialList1	shakira	Mouse				40	1	3			
Generico_V2	10	1	<?xml version="1.0"?>\n<Clock xmlns:dt="urn:schemas-microsoft-com:datatypes"><Description dt:dt="string">E-Prime Primary Realtime Clock</Description><StartTime><Timestamp dt:dt="int">0</Timestamp><DateUtc dt:dt="string">2019-11-12T16:49:26Z</DateUtc></StartTime><FrequencyChanges><FrequencyChange><Frequency dt:dt="r8">10000000</Frequency><Timestamp dt:dt="r8">196639219981</Timestamp><Current dt:dt="r8">0</Current><DateUtc dt:dt="string">2019-11-12T16:49:26Z</DateUtc></FrequencyChange></FrequencyChanges></Clock>\n	Generico_V2-10-1	60.001	1.0.0.334	Mouse	1	Keyboard	-926672417	Full	3.0.3.80	3.0.3.80	11-12-2019	12/11/2019 16:49:26	17:49:26	3.0.3.82	Mouse	1	1	1	1	Mouse	BlockProc	BlockList	8	1	2	Mouse	-999999	21	243854	0	2	2956	246810		0	0	0	0	2	generic	Mouse	-999999	46	234772	0	1	754	235526	6.hoja.roja	6.hoja.roja_400	filler	TrialProc	fill.hojas.rojas	TrialList1	hoja_roja	Mouse				22	1	4			
Generico_V2	10	1	<?xml version="1.0"?>\n<Clock xmlns:dt="urn:schemas-microsoft-com:datatypes"><Description dt:dt="string">E-Prime Primary Realtime Clock</Description><StartTime><Timestamp dt:dt="int">0</Timestamp><DateUtc dt:dt="string">2019-11-12T16:49:26Z</DateUtc></StartTime><FrequencyChanges><FrequencyChange><Frequency dt:dt="r8">10000000</Frequency><Timestamp dt:dt="r8">196639219981</Timestamp><Current dt:dt="r8">0</Current><DateUtc dt:dt="string">2019-11-12T16:49:26Z</DateUtc></FrequencyChange></FrequencyChanges></Clock>\n	Generico_V2-10-1	60.001	1.0.0.334	Mouse	1	Keyboard	-926672417	Full	3.0.3.80	3.0.3.80	11-12-2019	12/11/2019 16:49:26	17:49:26	3.0.3.82	Mouse	1	1	1	1	Mouse	BlockProc	BlockList	9	0	2	Mouse	-999999	13	257053	0	1	3969	261022		0	0	0	0	2	universal	Mouse	-999999	44	246854	0	1	856	247710	15.rana.con3ojos	15.rana.con3ojos_400	critical	TrialProc	uni.ranas.ojos	TrialList1	rana	Mouse				15	1	5			
Generico_V2	10	1	<?xml version="1.0"?>\n<Clock xmlns:dt="urn:schemas-microsoft-com:datatypes"><Description dt:dt="string">E-Prime Primary Realtime Clock</Description><StartTime><Timestamp dt:dt="int">0</Timestamp><DateUtc dt:dt="string">2019-11-12T16:49:26Z</DateUtc></StartTime><FrequencyChanges><FrequencyChange><Frequency dt:dt="r8">10000000</Frequency><Timestamp dt:dt="r8">196639219981</Timestamp><Current dt:dt="r8">0</Current><DateUtc dt:dt="string">2019-11-12T16:49:26Z</DateUtc></FrequencyChange></FrequencyChanges></Clock>\n	Generico_V2-10-1	60.001	1.0.0.334	Mouse	1	Keyboard	-926672417	Full	3.0.3.80	3.0.3.80	11-12-2019	12/11/2019 16:49:26	17:49:26	3.0.3.82	Mouse	1	1	1	1	Mouse	BlockProc	BlockList	10	1	2	Mouse	-999999	16	270436	0	2	3502	273938		0	0	0	0	2	generic	Mouse	-999999	48	261070	0	1	824	261894	12.pizza_cuadrada	12.pizza_cuadrada_400	filler	TrialProc	fill.pizzas	TrialList1	pizza	Mouse				28	1	6			
Generico_V2	10	1	<?xml version="1.0"?>\n<Clock xmlns:dt="urn:schemas-microsoft-com:datatypes"><Description dt:dt="string">E-Prime Primary Realtime Clock</Description><StartTime><Timestamp dt:dt="int">0</Timestamp><DateUtc dt:dt="string">2019-11-12T16:49:26Z</DateUtc></StartTime><FrequencyChanges><FrequencyChange><Frequency dt:dt="r8">10000000</Frequency><Timestamp dt:dt="r8">196639219981</Timestamp><Current dt:dt="r8">0</Current><DateUtc dt:dt="string">2019-11-12T16:49:26Z</DateUtc></FrequencyChange></FrequencyChanges></Clock>\n	Generico_V2-10-1	60.001	1.0.0.334	Mouse	1	Keyboard	-926672417	Full	3.0.3.80	3.0.3.80	11-12-2019	12/11/2019 16:49:26	17:49:26	3.0.3.82	Mouse	1	1	1	1	Mouse	BlockProc	BlockList	11	1	1	Mouse	-999999	26	286284	0	1	3610	289894		0	0	0	0	1	prop.name	Mouse	-999999	47	273985	0	1	784	274769	7.donald.duck	7.donald.duck_400	filler	TrialProc	fill.Pato.Donald	TrialList1	pato_donald	Mouse				39	1	7			
Generico_V2	10	1	<?xml version="1.0"?>\n<Clock xmlns:dt="urn:schemas-microsoft-com:datatypes"><Description dt:dt="string">E-Prime Primary Realtime Clock</Description><StartTime><Timestamp dt:dt="int">0</Timestamp><DateUtc dt:dt="string">2019-11-12T16:49:26Z</DateUtc></StartTime><FrequencyChanges><FrequencyChange><Frequency dt:dt="r8">10000000</Frequency><Timestamp dt:dt="r8">196639219981</Timestamp><Current dt:dt="r8">0</Current><DateUtc dt:dt="string">2019-11-12T16:49:26Z</DateUtc></FrequencyChange></FrequencyChanges></Clock>\n	Generico_V2-10-1	60.001	1.0.0.334	Mouse	1	Keyboard	-926672417	Full	3.0.3.80	3.0.3.80	11-12-2019	12/11/2019 16:49:26	17:49:26	3.0.3.82	Mouse	1	1	1	1	Mouse	BlockProc	BlockList	12	1	2	Mouse	-999999	17	300933	0	2	4149	305082		0	0	0	0	2	universal	Mouse	-999999	40	289934	0	1	1048	290982	16.vaca.blanca	16.vaca.blanca_400	critical	TrialProc	uni.vacas.manchas	TrialList1	vaca	Mouse				16	1	8			
Generico_V2	10	1	<?xml version="1.0"?>\n<Clock xmlns:dt="urn:schemas-microsoft-com:datatypes"><Description dt:dt="string">E-Prime Primary Realtime Clock</Description><StartTime><Timestamp dt:dt="int">0</Timestamp><DateUtc dt:dt="string">2019-11-12T16:49:26Z</DateUtc></StartTime><FrequencyChanges><FrequencyChange><Frequency dt:dt="r8">10000000</Frequency><Timestamp dt:dt="r8">196639219981</Timestamp><Current dt:dt="r8">0</Current><DateUtc dt:dt="string">2019-11-12T16:49:26Z</DateUtc></FrequencyChange></FrequencyChanges></Clock>\n	Generico_V2-10-1	60.001	1.0.0.334	Mouse	1	Keyboard	-926672417	Full	3.0.3.80	3.0.3.80	11-12-2019	12/11/2019 16:49:26	17:49:26	3.0.3.82	Mouse	1	1	1	1	Mouse	BlockProc	BlockList	13	1	1	Mouse	-999999	23	315716	0	1	3702	319418		0	0	0	0	1	prop.name	Mouse	-999999	34	305116	0	1	1694	306810	5.ibaiondo.piscina	5.ibaiondo.piscina_400	filler	TrialProc	fill..Ibaiondo	TrialList1	ibaiondo	Mouse				37	1	9			
Generico_V2	10	1	<?xml version="1.0"?>\n<Clock xmlns:dt="urn:schemas-microsoft-com:datatypes"><Description dt:dt="string">E-Prime Primary Realtime Clock</Description><StartTime><Timestamp dt:dt="int">0</Timestamp><DateUtc dt:dt="string">2019-11-12T16:49:26Z</DateUtc></StartTime><FrequencyChanges><FrequencyChange><Frequency dt:dt="r8">10000000</Frequency><Timestamp dt:dt="r8">196639219981</Timestamp><Current dt:dt="r8">0</Current><DateUtc dt:dt="string">2019-11-12T16:49:26Z</DateUtc></FrequencyChange></FrequencyChanges></Clock>\n	Generico_V2-10-1	60.001	1.0.0.334	Mouse	1	Keyboard	-926672417	Full	3.0.3.80	3.0.3.80	11-12-2019	12/11/2019 16:49:26	17:49:26	3.0.3.82	Mouse	1	1	1	1	Mouse	BlockProc	BlockList	14	1	2	Mouse	-999999	18	328981	0	2	1389	330370		0	0	0	0	2	generic	Mouse	-999999	47	319465	0	1	689	320154	13.pincho-tortilla	13.pincho-tortilla_400	filler	TrialProc	fill.pintxos	TrialList1	pintxo	Mouse				29	1	10			
Generico_V2	10	1	<?xml version="1.0"?>\n<Clock xmlns:dt="urn:schemas-microsoft-com:datatypes"><Description dt:dt="string">E-Prime Primary Realtime Clock</Description><StartTime><Timestamp dt:dt="int">0</Timestamp><DateUtc dt:dt="string">2019-11-12T16:49:26Z</DateUtc></StartTime><FrequencyChanges><FrequencyChange><Frequency dt:dt="r8">10000000</Frequency><Timestamp dt:dt="r8">196639219981</Timestamp><Current dt:dt="r8">0</Current><DateUtc dt:dt="string">2019-11-12T16:49:26Z</DateUtc></FrequencyChange></FrequencyChanges></Clock>\n	Generico_V2-10-1	60.001	1.0.0.334	Mouse	1	Keyboard	-926672417	Full	3.0.3.80	3.0.3.80	11-12-2019	12/11/2019 16:49:26	17:49:26	3.0.3.82	Mouse	1	1	1	1	Mouse	BlockProc	BlockList	15	1	2	Mouse	-999999	18	341364	0	2	4078	345442		0	0	0	0	2	generic	Mouse	-999999	44	330414	0	1	2128	332542	3.boy.with.glasses	3.boy.with.glasses_400	filler	TrialProc	fill.niños.gafas	TrialList1	niño_gafas	Mouse				19	1	11			
Generico_V2	10	1	<?xml version="1.0"?>\n<Clock xmlns:dt="urn:schemas-microsoft-com:datatypes"><Description dt:dt="string">E-Prime Primary Realtime Clock</Description><StartTime><Timestamp dt:dt="int">0</Timestamp><DateUtc dt:dt="string">2019-11-12T16:49:26Z</DateUtc></StartTime><FrequencyChanges><FrequencyChange><Frequency dt:dt="r8">10000000</Frequency><Timestamp dt:dt="r8">196639219981</Timestamp><Current dt:dt="r8">0</Current><DateUtc dt:dt="string">2019-11-12T16:49:26Z</DateUtc></FrequencyChange></FrequencyChanges></Clock>\n	Generico_V2-10-1	60.001	1.0.0.334	Mouse	1	Keyboard	-926672417	Full	3.0.3.80	3.0.3.80	11-12-2019	12/11/2019 16:49:26	17:49:26	3.0.3.82	Mouse	1	1	1	1	Mouse	BlockProc	BlockList	16	0	1	Mouse	-999999	21	355896	0	2	3586	359482		0	0	0	0	1	generic	Mouse	-999999	38	345480	0	2	1174	346654	7.tuskless-elephant	7.tuskless-elephant_400	critical	TrialProc	gen.elefantes.colmillos	TrialList1	elefante	Mouse				7	1	12			
Generico_V2	10	1	<?xml version="1.0"?>\n<Clock xmlns:dt="urn:schemas-microsoft-com:datatypes"><Description dt:dt="string">E-Prime Primary Realtime Clock</Description><StartTime><Timestamp dt:dt="int">0</Timestamp><DateUtc dt:dt="string">2019-11-12T16:49:26Z</DateUtc></StartTime><FrequencyChanges><FrequencyChange><Frequency dt:dt="r8">10000000</Frequency><Timestamp dt:dt="r8">196639219981</Timestamp><Current dt:dt="r8">0</Current><DateUtc dt:dt="string">2019-11-12T16:49:26Z</DateUtc></FrequencyChange></FrequencyChanges></Clock>\n	Generico_V2-10-1	60.001	1.0.0.334	Mouse	1	Keyboard	-926672417	Full	3.0.3.80	3.0.3.80	11-12-2019	12/11/2019 16:49:26	17:49:26	3.0.3.82	Mouse	1	1	1	1	Mouse	BlockProc	BlockList	17	0	2	Mouse	-999999	25	370478	0	1	5868	376346		0	0	0	0	2	universal	Mouse	-999999	47	359529	0	1	1141	360670	14.4_winged_chicken	14.4_winged_chicken_400	critical	TrialProc	uni.gallinas.alas	TrialList1	gallina	Mouse				14	1	13			
Generico_V2	10	1	<?xml version="1.0"?>\n<Clock xmlns:dt="urn:schemas-microsoft-com:datatypes"><Description dt:dt="string">E-Prime Primary Realtime Clock</Description><StartTime><Timestamp dt:dt="int">0</Timestamp><DateUtc dt:dt="string">2019-11-12T16:49:26Z</DateUtc></StartTime><FrequencyChanges><FrequencyChange><Frequency dt:dt="r8">10000000</Frequency><Timestamp dt:dt="r8">196639219981</Timestamp><Current dt:dt="r8">0</Current><DateUtc dt:dt="string">2019-11-12T16:49:26Z</DateUtc></FrequencyChange></FrequencyChanges></Clock>\n	Generico_V2-10-1	60.001	1.0.0.334	Mouse	1	Keyboard	-926672417	Full	3.0.3.80	3.0.3.80	11-12-2019	12/11/2019 16:49:26	17:49:26	3.0.3.82	Mouse	1	1	1	1	Mouse	BlockProc	BlockList	18	1	1	Mouse	-999999	24	386910	0	1	3588	390498		0	0	0	0	1	prop.name	Mouse	-999999	32	376378	0	1	1996	378374	4.peter_pan	4.peter_pan_400	filler	TrialProc	fill.Peter.Pan	TrialList1	peterpan	Mouse				36	1	14			
Generico_V2	10	1	<?xml version="1.0"?>\n<Clock xmlns:dt="urn:schemas-microsoft-com:datatypes"><Description dt:dt="string">E-Prime Primary Realtime Clock</Description><StartTime><Timestamp dt:dt="int">0</Timestamp><DateUtc dt:dt="string">2019-11-12T16:49:26Z</DateUtc></StartTime><FrequencyChanges><FrequencyChange><Frequency dt:dt="r8">10000000</Frequency><Timestamp dt:dt="r8">196639219981</Timestamp><Current dt:dt="r8">0</Current><DateUtc dt:dt="string">2019-11-12T16:49:26Z</DateUtc></FrequencyChange></FrequencyChanges></Clock>\n	Generico_V2-10-1	60.001	1.0.0.334	Mouse	1	Keyboard	-926672417	Full	3.0.3.80	3.0.3.80	11-12-2019	12/11/2019 16:49:26	17:49:26	3.0.3.82	Mouse	1	1	1	1	Mouse	BlockProc	BlockList	19	1	2	Mouse	-999999	13	402043	0	2	3619	405662		0	0	0	0	2	universal	Mouse	-999999	45	390543	0	1	847	391390	10.black.pig	10.black.pig_400	critical	TrialProc	uni.cerdos.rosa	TrialList1	cerdo	Mouse				10	1	15			
Generico_V2	10	1	<?xml version="1.0"?>\n<Clock xmlns:dt="urn:schemas-microsoft-com:datatypes"><Description dt:dt="string">E-Prime Primary Realtime Clock</Description><StartTime><Timestamp dt:dt="int">0</Timestamp><DateUtc dt:dt="string">2019-11-12T16:49:26Z</DateUtc></StartTime><FrequencyChanges><FrequencyChange><Frequency dt:dt="r8">10000000</Frequency><Timestamp dt:dt="r8">196639219981</Timestamp><Current dt:dt="r8">0</Current><DateUtc dt:dt="string">2019-11-12T16:49:26Z</DateUtc></FrequencyChange></FrequencyChanges></Clock>\n	Generico_V2-10-1	60.001	1.0.0.334	Mouse	1	Keyboard	-926672417	Full	3.0.3.80	3.0.3.80	11-12-2019	12/11/2019 16:49:26	17:49:26	3.0.3.82	Mouse	1	1	1	1	Mouse	BlockProc	BlockList	20	1	2	Mouse	-999999	16	415542	0	2	3664	419206		0	0	0	0	2	universal	Mouse	-999999	47	405709	0	1	689	406398	11.bald-beauty	11.bald-beauty_400	critical	TrialProc	uni.personas.pelo	TrialList1	persona_pelo	Mouse				11	1	16			
Generico_V2	10	1	<?xml version="1.0"?>\n<Clock xmlns:dt="urn:schemas-microsoft-com:datatypes"><Description dt:dt="string">E-Prime Primary Realtime Clock</Description><StartTime><Timestamp dt:dt="int">0</Timestamp><DateUtc dt:dt="string">2019-11-12T16:49:26Z</DateUtc></StartTime><FrequencyChanges><FrequencyChange><Frequency dt:dt="r8">10000000</Frequency><Timestamp dt:dt="r8">196639219981</Timestamp><Current dt:dt="r8">0</Current><DateUtc dt:dt="string">2019-11-12T16:49:26Z</DateUtc></FrequencyChange></FrequencyChanges></Clock>\n	Generico_V2-10-1	60.001	1.0.0.334	Mouse	1	Keyboard	-926672417	Full	3.0.3.80	3.0.3.80	11-12-2019	12/11/2019 16:49:26	17:49:26	3.0.3.82	Mouse	1	1	1	1	Mouse	BlockProc	BlockList	21	1	2	Mouse	-999999	18	429407	0	2	3495	432902		0	0	0	0	2	generic	Mouse	-999999	35	419241	0	1	1617	420858	9.lechuga-morada	9.lechuga-morada_400	filler	TrialProc	fill.lechugas.moradas	TrialList1	lechuga	Mouse				25	1	17			
Generico_V2	10	1	<?xml version="1.0"?>\n<Clock xmlns:dt="urn:schemas-microsoft-com:datatypes"><Description dt:dt="string">E-Prime Primary Realtime Clock</Description><StartTime><Timestamp dt:dt="int">0</Timestamp><DateUtc dt:dt="string">2019-11-12T16:49:26Z</DateUtc></StartTime><FrequencyChanges><FrequencyChange><Frequency dt:dt="r8">10000000</Frequency><Timestamp dt:dt="r8">196639219981</Timestamp><Current dt:dt="r8">0</Current><DateUtc dt:dt="string">2019-11-12T16:49:26Z</DateUtc></FrequencyChange></FrequencyChanges></Clock>\n	Generico_V2-10-1	60.001	1.0.0.334	Mouse	1	Keyboard	-926672417	Full	3.0.3.80	3.0.3.80	11-12-2019	12/11/2019 16:49:26	17:49:26	3.0.3.82	Mouse	1	1	1	1	Mouse	BlockProc	BlockList	22	1	1	Mouse	-999999	27	442773	0	1	3801	446574		0	0	0	0	1	generic	Mouse	-999999	38	432940	0	2	1066	434006	5.ciervo.sin.cuernos	5.ciervo.sin.cuernos_400	critical	TrialProc	gen.ciervos.cuernos	TrialList1	ciervo	Mouse				5	1	18			
Generico_V2	10	1	<?xml version="1.0"?>\n<Clock xmlns:dt="urn:schemas-microsoft-com:datatypes"><Description dt:dt="string">E-Prime Primary Realtime Clock</Description><StartTime><Timestamp dt:dt="int">0</Timestamp><DateUtc dt:dt="string">2019-11-12T16:49:26Z</DateUtc></StartTime><FrequencyChanges><FrequencyChange><Frequency dt:dt="r8">10000000</Frequency><Timestamp dt:dt="r8">196639219981</Timestamp><Current dt:dt="r8">0</Current><DateUtc dt:dt="string">2019-11-12T16:49:26Z</DateUtc></FrequencyChange></FrequencyChanges></Clock>\n	Generico_V2-10-1	60.001	1.0.0.334	Mouse	1	Keyboard	-926672417	Full	3.0.3.80	3.0.3.80	11-12-2019	12/11/2019 16:49:26	17:49:26	3.0.3.82	Mouse	1	1	1	1	Mouse	BlockProc	BlockList	23	1	2	Mouse	-999999	16	457305	0	2	3700	461005		0	0	0	0	2	prop.name	Mouse	-999999	32	446606	0	1	1008	447614	16.reyes.magos	16.reyes.magos_400	filler	TrialProc	fill.Reyes	TrialList1	reyes_magos	Mouse				48	1	19			
Generico_V2	10	1	<?xml version="1.0"?>\n<Clock xmlns:dt="urn:schemas-microsoft-com:datatypes"><Description dt:dt="string">E-Prime Primary Realtime Clock</Description><StartTime><Timestamp dt:dt="int">0</Timestamp><DateUtc dt:dt="string">2019-11-12T16:49:26Z</DateUtc></StartTime><FrequencyChanges><FrequencyChange><Frequency dt:dt="r8">10000000</Frequency><Timestamp dt:dt="r8">196639219981</Timestamp><Current dt:dt="r8">0</Current><DateUtc dt:dt="string">2019-11-12T16:49:26Z</DateUtc></FrequencyChange></FrequencyChanges></Clock>\n	Generico_V2-10-1	60.001	1.0.0.334	Mouse	1	Keyboard	-926672417	Full	3.0.3.80	3.0.3.80	11-12-2019	12/11/2019 16:49:26	17:49:26	3.0.3.82	Mouse	1	1	1	1	Mouse	BlockProc	BlockList	24	1	1	Mouse	-999999	25	470604	0	1	3506	474110		0	0	0	0	1	generic	Mouse	-999999	33	461038	0	2	924	461962	4.bee.no.wings	4.bee.no.wings_400	critical	TrialProc	gen.abejas.alas	TrialList1	abeja	Mouse				4	1	20			
Generico_V2	10	1	<?xml version="1.0"?>\n<Clock xmlns:dt="urn:schemas-microsoft-com:datatypes"><Description dt:dt="string">E-Prime Primary Realtime Clock</Description><StartTime><Timestamp dt:dt="int">0</Timestamp><DateUtc dt:dt="string">2019-11-12T16:49:26Z</DateUtc></StartTime><FrequencyChanges><FrequencyChange><Frequency dt:dt="r8">10000000</Frequency><Timestamp dt:dt="r8">196639219981</Timestamp><Current dt:dt="r8">0</Current><DateUtc dt:dt="string">2019-11-12T16:49:26Z</DateUtc></FrequencyChange></FrequencyChanges></Clock>\n	Generico_V2-10-1	60.001	1.0.0.334	Mouse	1	Keyboard	-926672417	Full	3.0.3.80	3.0.3.80	11-12-2019	12/11/2019 16:49:26	17:49:26	3.0.3.82	Mouse	1	1	1	1	Mouse	BlockProc	BlockList	25	1	2	Mouse	-999999	27	482637	0	2	3553	486190		0	0	0	0	2	prop.name	Mouse	-999999	44	474154	0	1	452	474606	13.Trump	13.Trump_400	filler	TrialProc	fill.Trump	TrialList1	trump	Mouse				45	1	21			
Generico_V2	10	1	<?xml version="1.0"?>\n<Clock xmlns:dt="urn:schemas-microsoft-com:datatypes"><Description dt:dt="string">E-Prime Primary Realtime Clock</Description><StartTime><Timestamp dt:dt="int">0</Timestamp><DateUtc dt:dt="string">2019-11-12T16:49:26Z</DateUtc></StartTime><FrequencyChanges><FrequencyChange><Frequency dt:dt="r8">10000000</Frequency><Timestamp dt:dt="r8">196639219981</Timestamp><Current dt:dt="r8">0</Current><DateUtc dt:dt="string">2019-11-12T16:49:26Z</DateUtc></FrequencyChange></FrequencyChanges></Clock>\n	Generico_V2-10-1	60.001	1.0.0.334	Mouse	1	Keyboard	-926672417	Full	3.0.3.80	3.0.3.80	11-12-2019	12/11/2019 16:49:26	17:49:26	3.0.3.82	Mouse	1	1	1	1	Mouse	BlockProc	BlockList	26	1	1	Mouse	-999999	18	497985	0	1	4337	502322		0	0	0	0	1	generic	Mouse	-999999	46	486236	0	2	1410	487646	8.disabled.man	8.disabled.man_400	critical	TrialProc	gen.personas..brazos	TrialList1	persona_brazos	Mouse				8	1	22			
Generico_V2	10	1	<?xml version="1.0"?>\n<Clock xmlns:dt="urn:schemas-microsoft-com:datatypes"><Description dt:dt="string">E-Prime Primary Realtime Clock</Description><StartTime><Timestamp dt:dt="int">0</Timestamp><DateUtc dt:dt="string">2019-11-12T16:49:26Z</DateUtc></StartTime><FrequencyChanges><FrequencyChange><Frequency dt:dt="r8">10000000</Frequency><Timestamp dt:dt="r8">196639219981</Timestamp><Current dt:dt="r8">0</Current><DateUtc dt:dt="string">2019-11-12T16:49:26Z</DateUtc></FrequencyChange></FrequencyChanges></Clock>\n	Generico_V2-10-1	60.001	1.0.0.334	Mouse	1	Keyboard	-926672417	Full	3.0.3.80	3.0.3.80	11-12-2019	12/11/2019 16:49:26	17:49:26	3.0.3.82	Mouse	1	1	1	1	Mouse	BlockProc	BlockList	27	1	2	Mouse	-999999	14	512401	0	2	3533	515934		0	0	0	0	2	generic	Mouse	-999999	47	502369	0	1	1333	503702	7.mesa.verde	7.mesa.verde_400	filler	TrialProc	fill.mesas.verdes	TrialList1	mesa	Mouse				23	1	23			
Generico_V2	10	1	<?xml version="1.0"?>\n<Clock xmlns:dt="urn:schemas-microsoft-com:datatypes"><Description dt:dt="string">E-Prime Primary Realtime Clock</Description><StartTime><Timestamp dt:dt="int">0</Timestamp><DateUtc dt:dt="string">2019-11-12T16:49:26Z</DateUtc></StartTime><FrequencyChanges><FrequencyChange><Frequency dt:dt="r8">10000000</Frequency><Timestamp dt:dt="r8">196639219981</Timestamp><Current dt:dt="r8">0</Current><DateUtc dt:dt="string">2019-11-12T16:49:26Z</DateUtc></FrequencyChange></FrequencyChanges></Clock>\n	Generico_V2-10-1	60.001	1.0.0.334	Mouse	1	Keyboard	-926672417	Full	3.0.3.80	3.0.3.80	11-12-2019	12/11/2019 16:49:26	17:49:26	3.0.3.82	Mouse	1	1	1	1	Mouse	BlockProc	BlockList	28	1	2	Mouse	-999999	23	525683	0	2	3719	529402		0	0	0	0	2	generic	Mouse	-999999	33	515968	0	2	690	516658	14.coche.2.puertas	14.coche.2.puertas_400	filler	TrialProc	fill.coches.puertas	TrialList1	coche	Mouse				30	1	24			
Generico_V2	10	1	<?xml version="1.0"?>\n<Clock xmlns:dt="urn:schemas-microsoft-com:datatypes"><Description dt:dt="string">E-Prime Primary Realtime Clock</Description><StartTime><Timestamp dt:dt="int">0</Timestamp><DateUtc dt:dt="string">2019-11-12T16:49:26Z</DateUtc></StartTime><FrequencyChanges><FrequencyChange><Frequency dt:dt="r8">10000000</Frequency><Timestamp dt:dt="r8">196639219981</Timestamp><Current dt:dt="r8">0</Current><DateUtc dt:dt="string">2019-11-12T16:49:26Z</DateUtc></FrequencyChange></FrequencyChanges></Clock>\n	Generico_V2-10-1	60.001	1.0.0.334	Mouse	1	Keyboard	-926672417	Full	3.0.3.80	3.0.3.80	11-12-2019	12/11/2019 16:49:26	17:49:26	3.0.3.82	Mouse	1	1	1	1	Mouse	BlockProc	BlockList	29	1	1	Mouse	-999999	23	544349	0	1	3713	548062	Mouse	529	23656.7027324409	130	1	1	prop.name	Mouse	-999999	57	535283	0	1	1303	536586	3.Celedon	3.Celedon_400	filler	TrialProc	fill.Celedon	TrialList1	celedon	Mouse				35	1	25			
Generico_V2	10	1	<?xml version="1.0"?>\n<Clock xmlns:dt="urn:schemas-microsoft-com:datatypes"><Description dt:dt="string">E-Prime Primary Realtime Clock</Description><StartTime><Timestamp dt:dt="int">0</Timestamp><DateUtc dt:dt="string">2019-11-12T16:49:26Z</DateUtc></StartTime><FrequencyChanges><FrequencyChange><Frequency dt:dt="r8">10000000</Frequency><Timestamp dt:dt="r8">196639219981</Timestamp><Current dt:dt="r8">0</Current><DateUtc dt:dt="string">2019-11-12T16:49:26Z</DateUtc></FrequencyChange></FrequencyChanges></Clock>\n	Generico_V2-10-1	60.001	1.0.0.334	Mouse	1	Keyboard	-926672417	Full	3.0.3.80	3.0.3.80	11-12-2019	12/11/2019 16:49:26	17:49:26	3.0.3.82	Mouse	1	1	1	1	Mouse	BlockProc	BlockList	30	1	2	Mouse	-999999	22	558331	0	2	3883	562214		529	23656.7027324409	130	1	2	generic	Mouse	-999999	36	548098	0	1	1104	549202	2.pajaro.amarillo	2.pajaro.amarillo_400	filler	TrialProc	fill.pajaros.amarillos	TrialList1	pajaro	Mouse				18	1	26			
Generico_V2	10	1	<?xml version="1.0"?>\n<Clock xmlns:dt="urn:schemas-microsoft-com:datatypes"><Description dt:dt="string">E-Prime Primary Realtime Clock</Description><StartTime><Timestamp dt:dt="int">0</Timestamp><DateUtc dt:dt="string">2019-11-12T16:49:26Z</DateUtc></StartTime><FrequencyChanges><FrequencyChange><Frequency dt:dt="r8">10000000</Frequency><Timestamp dt:dt="r8">196639219981</Timestamp><Current dt:dt="r8">0</Current><DateUtc dt:dt="string">2019-11-12T16:49:26Z</DateUtc></FrequencyChange></FrequencyChanges></Clock>\n	Generico_V2-10-1	60.001	1.0.0.334	Mouse	1	Keyboard	-926672417	Full	3.0.3.80	3.0.3.80	11-12-2019	12/11/2019 16:49:26	17:49:26	3.0.3.82	Mouse	1	1	1	1	Mouse	BlockProc	BlockList	31	1	1	Mouse	-999999	23	572013	0	1	3401	575414		529	23656.7027324409	130	1	1	generic	Mouse	-999999	33	562247	0	1	875	563122	1.gato.sin.bigotes	1.gato.sin.bigotes_400	critical	TrialProc	gen.gatos.bigotes	TrialList1	gato	Mouse				1	1	27			
Generico_V2	10	1	<?xml version="1.0"?>\n<Clock xmlns:dt="urn:schemas-microsoft-com:datatypes"><Description dt:dt="string">E-Prime Primary Realtime Clock</Description><StartTime><Timestamp dt:dt="int">0</Timestamp><DateUtc dt:dt="string">2019-11-12T16:49:26Z</DateUtc></StartTime><FrequencyChanges><FrequencyChange><Frequency dt:dt="r8">10000000</Frequency><Timestamp dt:dt="r8">196639219981</Timestamp><Current dt:dt="r8">0</Current><DateUtc dt:dt="string">2019-11-12T16:49:26Z</DateUtc></FrequencyChange></FrequencyChanges></Clock>\n	Generico_V2-10-1	60.001	1.0.0.334	Mouse	1	Keyboard	-926672417	Full	3.0.3.80	3.0.3.80	11-12-2019	12/11/2019 16:49:26	17:49:26	3.0.3.82	Mouse	1	1	1	1	Mouse	BlockProc	BlockList	32	1	2	Mouse	-999999	26	585229	0	2	4249	589478		529	23656.7027324409	130	1	2	prop.name	Mouse	-999999	32	575446	0	1	688	576134	9.alaves	9.alaves_400	filler	TrialProc	fill.Alaves	TrialList1	alaves	Mouse				41	1	28			
Generico_V2	10	1	<?xml version="1.0"?>\n<Clock xmlns:dt="urn:schemas-microsoft-com:datatypes"><Description dt:dt="string">E-Prime Primary Realtime Clock</Description><StartTime><Timestamp dt:dt="int">0</Timestamp><DateUtc dt:dt="string">2019-11-12T16:49:26Z</DateUtc></StartTime><FrequencyChanges><FrequencyChange><Frequency dt:dt="r8">10000000</Frequency><Timestamp dt:dt="r8">196639219981</Timestamp><Current dt:dt="r8">0</Current><DateUtc dt:dt="string">2019-11-12T16:49:26Z</DateUtc></FrequencyChange></FrequencyChanges></Clock>\n	Generico_V2-10-1	60.001	1.0.0.334	Mouse	1	Keyboard	-926672417	Full	3.0.3.80	3.0.3.80	11-12-2019	12/11/2019 16:49:26	17:49:26	3.0.3.82	Mouse	1	1	1	1	Mouse	BlockProc	BlockList	33	1	2	Mouse	-999999	15	599761	0	2	3873	603634		529	23656.7027324409	130	1	2	universal	Mouse	-999999	34	589512	0	1	1194	590706	12.black.sheep	12.black.sheep_400	critical	TrialProc	uni.ovejas.blancas	TrialList1	oveja	Mouse				12	1	29			
Generico_V2	10	1	<?xml version="1.0"?>\n<Clock xmlns:dt="urn:schemas-microsoft-com:datatypes"><Description dt:dt="string">E-Prime Primary Realtime Clock</Description><StartTime><Timestamp dt:dt="int">0</Timestamp><DateUtc dt:dt="string">2019-11-12T16:49:26Z</DateUtc></StartTime><FrequencyChanges><FrequencyChange><Frequency dt:dt="r8">10000000</Frequency><Timestamp dt:dt="r8">196639219981</Timestamp><Current dt:dt="r8">0</Current><DateUtc dt:dt="string">2019-11-12T16:49:26Z</DateUtc></FrequencyChange></FrequencyChanges></Clock>\n	Generico_V2-10-1	60.001	1.0.0.334	Mouse	1	Keyboard	-926672417	Full	3.0.3.80	3.0.3.80	11-12-2019	12/11/2019 16:49:26	17:49:26	3.0.3.82	Mouse	1	1	1	1	Mouse	BlockProc	BlockList	34	1	1	Mouse	-999999	21	612544	0	1	3454	615998		529	23656.7027324409	130	1	1	prop.name	Mouse	-999999	44	603678	0	1	660	604338	1.Tour.Eiffel	1.Tour.Eiffel_400	filler	TrialProc	fill.Torre.alta	TrialList1	torre_eiffel	Mouse				33	1	30			
Generico_V2	10	1	<?xml version="1.0"?>\n<Clock xmlns:dt="urn:schemas-microsoft-com:datatypes"><Description dt:dt="string">E-Prime Primary Realtime Clock</Description><StartTime><Timestamp dt:dt="int">0</Timestamp><DateUtc dt:dt="string">2019-11-12T16:49:26Z</DateUtc></StartTime><FrequencyChanges><FrequencyChange><Frequency dt:dt="r8">10000000</Frequency><Timestamp dt:dt="r8">196639219981</Timestamp><Current dt:dt="r8">0</Current><DateUtc dt:dt="string">2019-11-12T16:49:26Z</DateUtc></FrequencyChange></FrequencyChanges></Clock>\n	Generico_V2-10-1	60.001	1.0.0.334	Mouse	1	Keyboard	-926672417	Full	3.0.3.80	3.0.3.80	11-12-2019	12/11/2019 16:49:26	17:49:26	3.0.3.82	Mouse	1	1	1	1	Mouse	BlockProc	BlockList	35	1	2	Mouse	-999999	26	625259	0	2	4091	629350		529	23656.7027324409	130	1	2	prop.name	Mouse	-999999	45	616043	0	1	587	616630	14.Mickey	14.Mickey_400	filler	TrialProc	fill..Mickey	TrialList1	mickey	Mouse				46	1	31			
Generico_V2	10	1	<?xml version="1.0"?>\n<Clock xmlns:dt="urn:schemas-microsoft-com:datatypes"><Description dt:dt="string">E-Prime Primary Realtime Clock</Description><StartTime><Timestamp dt:dt="int">0</Timestamp><DateUtc dt:dt="string">2019-11-12T16:49:26Z</DateUtc></StartTime><FrequencyChanges><FrequencyChange><Frequency dt:dt="r8">10000000</Frequency><Timestamp dt:dt="r8">196639219981</Timestamp><Current dt:dt="r8">0</Current><DateUtc dt:dt="string">2019-11-12T16:49:26Z</DateUtc></FrequencyChange></FrequencyChanges></Clock>\n	Generico_V2-10-1	60.001	1.0.0.334	Mouse	1	Keyboard	-926672417	Full	3.0.3.80	3.0.3.80	11-12-2019	12/11/2019 16:49:26	17:49:26	3.0.3.82	Mouse	1	1	1	1	Mouse	BlockProc	BlockList	36	1	2	Mouse	-999999	22	638575	0	2	3527	642102		529	23656.7027324409	130	1	2	prop.name	Mouse	-999999	42	629392	0	1	662	630054	15.garfio	15.garfio_400	filler	TrialProc	fill.Garfio	TrialList1	garfio	Mouse				47	1	32			
Generico_V2	10	1	<?xml version="1.0"?>\n<Clock xmlns:dt="urn:schemas-microsoft-com:datatypes"><Description dt:dt="string">E-Prime Primary Realtime Clock</Description><StartTime><Timestamp dt:dt="int">0</Timestamp><DateUtc dt:dt="string">2019-11-12T16:49:26Z</DateUtc></StartTime><FrequencyChanges><FrequencyChange><Frequency dt:dt="r8">10000000</Frequency><Timestamp dt:dt="r8">196639219981</Timestamp><Current dt:dt="r8">0</Current><DateUtc dt:dt="string">2019-11-12T16:49:26Z</DateUtc></FrequencyChange></FrequencyChanges></Clock>\n	Generico_V2-10-1	60.001	1.0.0.334	Mouse	1	Keyboard	-926672417	Full	3.0.3.80	3.0.3.80	11-12-2019	12/11/2019 16:49:26	17:49:26	3.0.3.82	Mouse	1	1	1	1	Mouse	BlockProc	BlockList	37	1	2	Mouse	-999999	14	652507	0	2	3551	656058		529	23656.7027324409	130	1	2	generic	Mouse	-999999	40	642142	0	2	1184	643326	5.mariposa.azul	5.mariposa.azul_400	filler	TrialProc	fill.mariposas.azules	TrialList1	mariposa	Mouse				21	1	33			
Generico_V2	10	1	<?xml version="1.0"?>\n<Clock xmlns:dt="urn:schemas-microsoft-com:datatypes"><Description dt:dt="string">E-Prime Primary Realtime Clock</Description><StartTime><Timestamp dt:dt="int">0</Timestamp><DateUtc dt:dt="string">2019-11-12T16:49:26Z</DateUtc></StartTime><FrequencyChanges><FrequencyChange><Frequency dt:dt="r8">10000000</Frequency><Timestamp dt:dt="r8">196639219981</Timestamp><Current dt:dt="r8">0</Current><DateUtc dt:dt="string">2019-11-12T16:49:26Z</DateUtc></FrequencyChange></FrequencyChanges></Clock>\n	Generico_V2-10-1	60.001	1.0.0.334	Mouse	1	Keyboard	-926672417	Full	3.0.3.80	3.0.3.80	11-12-2019	12/11/2019 16:49:26	17:49:26	3.0.3.82	Mouse	1	1	1	1	Mouse	BlockProc	BlockList	38	1	2	Mouse	-999999	20	666473	0	2	4221	670694		529	23656.7027324409	130	1	2	generic	Mouse	-999999	33	656091	0	1	763	656854	11.restaurante_italiano	11.restaurante_italiano_400	filler	TrialProc	fill.restaurantes	TrialList1	restaurante	Mouse				27	1	34			
Generico_V2	10	1	<?xml version="1.0"?>\n<Clock xmlns:dt="urn:schemas-microsoft-com:datatypes"><Description dt:dt="string">E-Prime Primary Realtime Clock</Description><StartTime><Timestamp dt:dt="int">0</Timestamp><DateUtc dt:dt="string">2019-11-12T16:49:26Z</DateUtc></StartTime><FrequencyChanges><FrequencyChange><Frequency dt:dt="r8">10000000</Frequency><Timestamp dt:dt="r8">196639219981</Timestamp><Current dt:dt="r8">0</Current><DateUtc dt:dt="string">2019-11-12T16:49:26Z</DateUtc></FrequencyChange></FrequencyChanges></Clock>\n	Generico_V2-10-1	60.001	1.0.0.334	Mouse	1	Keyboard	-926672417	Full	3.0.3.80	3.0.3.80	11-12-2019	12/11/2019 16:49:26	17:49:26	3.0.3.82	Mouse	1	1	1	1	Mouse	BlockProc	BlockList	39	1	2	Mouse	-999999	22	681422	0	2	3752	685174		529	23656.7027324409	130	1	2	generic	Mouse	-999999	46	670740	0	1	1094	671834	4.curly.haired.girl	4.curly.haired.girl_400	filler	TrialProc	fill.niñas.rizos	TrialList1	niña_rizados	Mouse				20	1	35			
Generico_V2	10	1	<?xml version="1.0"?>\n<Clock xmlns:dt="urn:schemas-microsoft-com:datatypes"><Description dt:dt="string">E-Prime Primary Realtime Clock</Description><StartTime><Timestamp dt:dt="int">0</Timestamp><DateUtc dt:dt="string">2019-11-12T16:49:26Z</DateUtc></StartTime><FrequencyChanges><FrequencyChange><Frequency dt:dt="r8">10000000</Frequency><Timestamp dt:dt="r8">196639219981</Timestamp><Current dt:dt="r8">0</Current><DateUtc dt:dt="string">2019-11-12T16:49:26Z</DateUtc></FrequencyChange></FrequencyChanges></Clock>\n	Generico_V2-10-1	60.001	1.0.0.334	Mouse	1	Keyboard	-926672417	Full	3.0.3.80	3.0.3.80	11-12-2019	12/11/2019 16:49:26	17:49:26	3.0.3.82	Mouse	1	1	1	1	Mouse	BlockProc	BlockList	40	1	2	Mouse	-999999	25	694638	0	2	4200	698838		529	23656.7027324409	130	1	2	prop.name	Mouse	-999999	48	685222	0	1	572	685794	11.winter-christmas-tree	11.winter-christmas-tree_400	filler	TrialProc	fill.Navidades	TrialList1	navidad	Mouse				43	1	36			
Generico_V2	10	1	<?xml version="1.0"?>\n<Clock xmlns:dt="urn:schemas-microsoft-com:datatypes"><Description dt:dt="string">E-Prime Primary Realtime Clock</Description><StartTime><Timestamp dt:dt="int">0</Timestamp><DateUtc dt:dt="string">2019-11-12T16:49:26Z</DateUtc></StartTime><FrequencyChanges><FrequencyChange><Frequency dt:dt="r8">10000000</Frequency><Timestamp dt:dt="r8">196639219981</Timestamp><Current dt:dt="r8">0</Current><DateUtc dt:dt="string">2019-11-12T16:49:26Z</DateUtc></FrequencyChange></FrequencyChanges></Clock>\n	Generico_V2-10-1	60.001	1.0.0.334	Mouse	1	Keyboard	-926672417	Full	3.0.3.80	3.0.3.80	11-12-2019	12/11/2019 16:49:26	17:49:26	3.0.3.82	Mouse	1	1	1	1	Mouse	BlockProc	BlockList	41	1	1	Mouse	-999999	13	709203	0	1	3619	712822		529	23656.7027324409	130	1	1	generic	Mouse	-999999	49	698887	0	1	535	699422	6.man.no.teeth	6.man.no.teeth_400	critical	TrialProc	gen.personas.dientes	TrialList1	persona_dientes	Mouse				6	1	37			
Generico_V2	10	1	<?xml version="1.0"?>\n<Clock xmlns:dt="urn:schemas-microsoft-com:datatypes"><Description dt:dt="string">E-Prime Primary Realtime Clock</Description><StartTime><Timestamp dt:dt="int">0</Timestamp><DateUtc dt:dt="string">2019-11-12T16:49:26Z</DateUtc></StartTime><FrequencyChanges><FrequencyChange><Frequency dt:dt="r8">10000000</Frequency><Timestamp dt:dt="r8">196639219981</Timestamp><Current dt:dt="r8">0</Current><DateUtc dt:dt="string">2019-11-12T16:49:26Z</DateUtc></FrequencyChange></FrequencyChanges></Clock>\n	Generico_V2-10-1	60.001	1.0.0.334	Mouse	1	Keyboard	-926672417	Full	3.0.3.80	3.0.3.80	11-12-2019	12/11/2019 16:49:26	17:49:26	3.0.3.82	Mouse	1	1	1	1	Mouse	BlockProc	BlockList	42	1	1	Mouse	-999999	28	722319	0	1	3791	726110		529	23656.7027324409	130	1	1	prop.name	Mouse	-999999	48	712870	0	1	488	713358	6.Portaventura	6.Portaventura_400	filler	TrialProc	fill.Port.Aventura	TrialList1	portaventura	Mouse				38	1	38			
Generico_V2	10	1	<?xml version="1.0"?>\n<Clock xmlns:dt="urn:schemas-microsoft-com:datatypes"><Description dt:dt="string">E-Prime Primary Realtime Clock</Description><StartTime><Timestamp dt:dt="int">0</Timestamp><DateUtc dt:dt="string">2019-11-12T16:49:26Z</DateUtc></StartTime><FrequencyChanges><FrequencyChange><Frequency dt:dt="r8">10000000</Frequency><Timestamp dt:dt="r8">196639219981</Timestamp><Current dt:dt="r8">0</Current><DateUtc dt:dt="string">2019-11-12T16:49:26Z</DateUtc></FrequencyChange></FrequencyChanges></Clock>\n	Generico_V2-10-1	60.001	1.0.0.334	Mouse	1	Keyboard	-926672417	Full	3.0.3.80	3.0.3.80	11-12-2019	12/11/2019 16:49:26	17:49:26	3.0.3.82	Mouse	1	1	1	1	Mouse	BlockProc	BlockList	43	1	1	Mouse	-999999	26	735535	0	1	3439	738974		529	23656.7027324409	130	1	1	generic	Mouse	-999999	42	726152	0	1	462	726614	2.perro.sin.cola	2.perro.sin.cola_400	critical	TrialProc	gen.perros.cola	TrialList1	perro	Mouse				2	1	39			
Generico_V2	10	1	<?xml version="1.0"?>\n<Clock xmlns:dt="urn:schemas-microsoft-com:datatypes"><Description dt:dt="string">E-Prime Primary Realtime Clock</Description><StartTime><Timestamp dt:dt="int">0</Timestamp><DateUtc dt:dt="string">2019-11-12T16:49:26Z</DateUtc></StartTime><FrequencyChanges><FrequencyChange><Frequency dt:dt="r8">10000000</Frequency><Timestamp dt:dt="r8">196639219981</Timestamp><Current dt:dt="r8">0</Current><DateUtc dt:dt="string">2019-11-12T16:49:26Z</DateUtc></FrequencyChange></FrequencyChanges></Clock>\n	Generico_V2-10-1	60.001	1.0.0.334	Mouse	1	Keyboard	-926672417	Full	3.0.3.80	3.0.3.80	11-12-2019	12/11/2019 16:49:26	17:49:26	3.0.3.82	Mouse	1	1	1	1	Mouse	BlockProc	BlockList	44	1	2	Mouse	-999999	27	748867	0	2	3627	752494		529	23656.7027324409	130	1	2	prop.name	Mouse	-999999	44	739018	0	1	804	739822	10.Oscar	10.Oscar_400	filler	TrialProc	fill.Oscar	TrialList1	oscar	Mouse				42	1	40			
Generico_V2	10	1	<?xml version="1.0"?>\n<Clock xmlns:dt="urn:schemas-microsoft-com:datatypes"><Description dt:dt="string">E-Prime Primary Realtime Clock</Description><StartTime><Timestamp dt:dt="int">0</Timestamp><DateUtc dt:dt="string">2019-11-12T16:49:26Z</DateUtc></StartTime><FrequencyChanges><FrequencyChange><Frequency dt:dt="r8">10000000</Frequency><Timestamp dt:dt="r8">196639219981</Timestamp><Current dt:dt="r8">0</Current><DateUtc dt:dt="string">2019-11-12T16:49:26Z</DateUtc></FrequencyChange></FrequencyChanges></Clock>\n	Generico_V2-10-1	60.001	1.0.0.334	Mouse	1	Keyboard	-926672417	Full	3.0.3.80	3.0.3.80	11-12-2019	12/11/2019 16:49:26	17:49:26	3.0.3.82	Mouse	1	1	1	1	Mouse	BlockProc	BlockList	45	1	2	Mouse	-999999	26	763349	0	2	4189	767538		529	23656.7027324409	130	1	2	universal	Mouse	-999999	39	752533	0	1	701	753234	13.Giraffe-With-a-Short-Neck	13.Giraffe-With-a-Short-Neck_400	critical	TrialProc	uni.jirafas.cuello	TrialList1	jirafa	Mouse				13	1	41			
Generico_V2	10	1	<?xml version="1.0"?>\n<Clock xmlns:dt="urn:schemas-microsoft-com:datatypes"><Description dt:dt="string">E-Prime Primary Realtime Clock</Description><StartTime><Timestamp dt:dt="int">0</Timestamp><DateUtc dt:dt="string">2019-11-12T16:49:26Z</DateUtc></StartTime><FrequencyChanges><FrequencyChange><Frequency dt:dt="r8">10000000</Frequency><Timestamp dt:dt="r8">196639219981</Timestamp><Current dt:dt="r8">0</Current><DateUtc dt:dt="string">2019-11-12T16:49:26Z</DateUtc></FrequencyChange></FrequencyChanges></Clock>\n	Generico_V2-10-1	60.001	1.0.0.334	Mouse	1	Keyboard	-926672417	Full	3.0.3.80	3.0.3.80	11-12-2019	12/11/2019 16:49:26	17:49:26	3.0.3.82	Mouse	1	1	1	1	Mouse	BlockProc	BlockList	46	1	2	Mouse	-999999	22	780148	0	2	4130	784278		529	23656.7027324409	130	1	2	generic	Mouse	-999999	44	767582	0	1	724	768306	10.Casas-con-techo-de-chapas-negras	10.Casas-con-techo-de-chapas-negras_400	filler	TrialProc	fill.tejados	TrialList1	casa	Mouse				26	1	42			
Generico_V2	10	1	<?xml version="1.0"?>\n<Clock xmlns:dt="urn:schemas-microsoft-com:datatypes"><Description dt:dt="string">E-Prime Primary Realtime Clock</Description><StartTime><Timestamp dt:dt="int">0</Timestamp><DateUtc dt:dt="string">2019-11-12T16:49:26Z</DateUtc></StartTime><FrequencyChanges><FrequencyChange><Frequency dt:dt="r8">10000000</Frequency><Timestamp dt:dt="r8">196639219981</Timestamp><Current dt:dt="r8">0</Current><DateUtc dt:dt="string">2019-11-12T16:49:26Z</DateUtc></FrequencyChange></FrequencyChanges></Clock>\n	Generico_V2-10-1	60.001	1.0.0.334	Mouse	1	Keyboard	-926672417	Full	3.0.3.80	3.0.3.80	11-12-2019	12/11/2019 16:49:26	17:49:26	3.0.3.82	Mouse	1	1	1	1	Mouse	BlockProc	BlockList	47	1	2	Mouse	-999999	24	794247	0	2	3863	798110		529	23656.7027324409	130	1	2	generic	Mouse	-999999	36	784314	0	1	652	784966	16.silla.plastico	16.silla.plastico_400	filler	TrialProc	fill.sillas.plastico	TrialList1	silla	Mouse				32	1	43			
Generico_V2	10	1	<?xml version="1.0"?>\n<Clock xmlns:dt="urn:schemas-microsoft-com:datatypes"><Description dt:dt="string">E-Prime Primary Realtime Clock</Description><StartTime><Timestamp dt:dt="int">0</Timestamp><DateUtc dt:dt="string">2019-11-12T16:49:26Z</DateUtc></StartTime><FrequencyChanges><FrequencyChange><Frequency dt:dt="r8">10000000</Frequency><Timestamp dt:dt="r8">196639219981</Timestamp><Current dt:dt="r8">0</Current><DateUtc dt:dt="string">2019-11-12T16:49:26Z</DateUtc></FrequencyChange></FrequencyChanges></Clock>\n	Generico_V2-10-1	60.001	1.0.0.334	Mouse	1	Keyboard	-926672417	Full	3.0.3.80	3.0.3.80	11-12-2019	12/11/2019 16:49:26	17:49:26	3.0.3.82	Mouse	1	1	1	1	Mouse	BlockProc	BlockList	48	1	2	Mouse	-999999	26	807996	0	2	4546	812542		529	23656.7027324409	130	1	2	universal	Mouse	-999999	37	798147	0	1	707	798854	9.one-ear-rabbit	9.one-ear-rabbit_400	critical	TrialProc	uni.conejos.orejas	TrialList1	conejo	Mouse				9	1	44			
Generico_V2	10	1	<?xml version="1.0"?>\n<Clock xmlns:dt="urn:schemas-microsoft-com:datatypes"><Description dt:dt="string">E-Prime Primary Realtime Clock</Description><StartTime><Timestamp dt:dt="int">0</Timestamp><DateUtc dt:dt="string">2019-11-12T16:49:26Z</DateUtc></StartTime><FrequencyChanges><FrequencyChange><Frequency dt:dt="r8">10000000</Frequency><Timestamp dt:dt="r8">196639219981</Timestamp><Current dt:dt="r8">0</Current><DateUtc dt:dt="string">2019-11-12T16:49:26Z</DateUtc></FrequencyChange></FrequencyChanges></Clock>\n	Generico_V2-10-1	60.001	1.0.0.334	Mouse	1	Keyboard	-926672417	Full	3.0.3.80	3.0.3.80	11-12-2019	12/11/2019 16:49:26	17:49:26	3.0.3.82	Mouse	1	1	1	1	Mouse	BlockProc	BlockList	49	1	2	Mouse	-999999	22	821562	0	2	3608	825170		529	23656.7027324409	130	1	2	prop.name	Mouse	-999999	37	812579	0	1	531	813110	12.olentzero	12.olentzero_400	filler	TrialProc	fill.Olentzero	TrialList1	olentzero	Mouse				44	1	45			
Generico_V2	10	1	<?xml version="1.0"?>\n<Clock xmlns:dt="urn:schemas-microsoft-com:datatypes"><Description dt:dt="string">E-Prime Primary Realtime Clock</Description><StartTime><Timestamp dt:dt="int">0</Timestamp><DateUtc dt:dt="string">2019-11-12T16:49:26Z</DateUtc></StartTime><FrequencyChanges><FrequencyChange><Frequency dt:dt="r8">10000000</Frequency><Timestamp dt:dt="r8">196639219981</Timestamp><Current dt:dt="r8">0</Current><DateUtc dt:dt="string">2019-11-12T16:49:26Z</DateUtc></FrequencyChange></FrequencyChanges></Clock>\n	Generico_V2-10-1	60.001	1.0.0.334	Mouse	1	Keyboard	-926672417	Full	3.0.3.80	3.0.3.80	11-12-2019	12/11/2019 16:49:26	17:49:26	3.0.3.82	Mouse	1	1	1	1	Mouse	BlockProc	BlockList	50	1	2	Mouse	-999999	28	835127	0	2	3411	838538		529	23656.7027324409	130	1	2	generic	Mouse	-999999	41	825211	0	1	583	825794	15.cama.redonda	15.cama.redonda_400	filler	TrialProc	fill.camas.redondas	TrialList1	cama	Mouse				31	1	46			
Generico_V2	10	1	<?xml version="1.0"?>\n<Clock xmlns:dt="urn:schemas-microsoft-com:datatypes"><Description dt:dt="string">E-Prime Primary Realtime Clock</Description><StartTime><Timestamp dt:dt="int">0</Timestamp><DateUtc dt:dt="string">2019-11-12T16:49:26Z</DateUtc></StartTime><FrequencyChanges><FrequencyChange><Frequency dt:dt="r8">10000000</Frequency><Timestamp dt:dt="r8">196639219981</Timestamp><Current dt:dt="r8">0</Current><DateUtc dt:dt="string">2019-11-12T16:49:26Z</DateUtc></FrequencyChange></FrequencyChanges></Clock>\n	Generico_V2-10-1	60.001	1.0.0.334	Mouse	1	Keyboard	-926672417	Full	3.0.3.80	3.0.3.80	11-12-2019	12/11/2019 16:49:26	17:49:26	3.0.3.82	Mouse	1	1	1	1	Mouse	BlockProc	BlockList	51	1	1	Mouse	-999999	17	849410	0	1	4924	854334		529	23656.7027324409	130	1	1	prop.name	Mouse	-999999	39	838577	0	1	637	839214	2.Virgen_Blanca	2.Virgen_Blanca_400	filler	TrialProc	fill.Virgen.Blanca	TrialList1	virgen_blanca	Mouse				34	1	47			
Generico_V2	10	1	<?xml version="1.0"?>\n<Clock xmlns:dt="urn:schemas-microsoft-com:datatypes"><Description dt:dt="string">E-Prime Primary Realtime Clock</Description><StartTime><Timestamp dt:dt="int">0</Timestamp><DateUtc dt:dt="string">2019-11-12T16:49:26Z</DateUtc></StartTime><FrequencyChanges><FrequencyChange><Frequency dt:dt="r8">10000000</Frequency><Timestamp dt:dt="r8">196639219981</Timestamp><Current dt:dt="r8">0</Current><DateUtc dt:dt="string">2019-11-12T16:49:26Z</DateUtc></FrequencyChange></FrequencyChanges></Clock>\n	Generico_V2-10-1	60.001	1.0.0.334	Mouse	1	Keyboard	-926672417	Full	3.0.3.80	3.0.3.80	11-12-2019	12/11/2019 16:49:26	17:49:26	3.0.3.82	Mouse	1	1	1	1	Mouse	BlockProc	BlockList	52	0	2	Mouse	-999999	19	864659	0	1	3515	868174		529	23656.7027324409	130	1	2	generic	Mouse	-999999	42	854376	0	1	766	855142	8.short.pants	8.short.pants_400	filler	TrialProc	fill.pantalones.cortos	TrialList1	pantalon	Mouse				24	1	48			
Generico_V2	11	1	<?xml version="1.0"?>\n<Clock xmlns:dt="urn:schemas-microsoft-com:datatypes"><Description dt:dt="string">E-Prime Primary Realtime Clock</Description><StartTime><Timestamp dt:dt="int">0</Timestamp><DateUtc dt:dt="string">2019-11-12T17:40:54Z</DateUtc></StartTime><FrequencyChanges><FrequencyChange><Frequency dt:dt="r8">10000000</Frequency><Timestamp dt:dt="r8">227520489718</Timestamp><Current dt:dt="r8">0</Current><DateUtc dt:dt="string">2019-11-12T17:40:54Z</DateUtc></FrequencyChange></FrequencyChanges></Clock>\n	Generico_V2-11-1	59.996	1.0.0.334	Mouse	1	Keyboard	-110159374	Full	3.0.3.80	3.0.3.80	11-12-2019	12/11/2019 17:40:54	18:40:54	3.0.3.82	Mouse	1	1	1	1	Mouse	BlockProc	BlockList	1	1	1,2	Mouse	-999999	26	156486	0	1	3353	159839		0	0	0	0	1,2	?	Mouse	-999999	44	145336	0	1	2343	147679	burro	burro_400	Practice	TrialProc	prac.burro.marron	TrainingList	burro	Mouse	1	1	1						
Generico_V2	11	1	<?xml version="1.0"?>\n<Clock xmlns:dt="urn:schemas-microsoft-com:datatypes"><Description dt:dt="string">E-Prime Primary Realtime Clock</Description><StartTime><Timestamp dt:dt="int">0</Timestamp><DateUtc dt:dt="string">2019-11-12T17:40:54Z</DateUtc></StartTime><FrequencyChanges><FrequencyChange><Frequency dt:dt="r8">10000000</Frequency><Timestamp dt:dt="r8">227520489718</Timestamp><Current dt:dt="r8">0</Current><DateUtc dt:dt="string">2019-11-12T17:40:54Z</DateUtc></FrequencyChange></FrequencyChanges></Clock>\n	Generico_V2-11-1	59.996	1.0.0.334	Mouse	1	Keyboard	-110159374	Full	3.0.3.80	3.0.3.80	11-12-2019	12/11/2019 17:40:54	18:40:54	3.0.3.82	Mouse	1	1	1	1	Mouse	BlockProc	BlockList	2	1	2	Mouse	-999999	17	178201	0	2	3550	181751		0	0	0	0	2	?	Mouse	-999999	46	159885	0	1	8562	168447	camión	camión_400	Practice	TrialProc	prac.camion.bomberos	TrainingList	camion	Mouse	2	1	2						
